ts_ms,ax,ay,az,qr,qi,qj,qk,gy,gp,gr
6483.1,-6.9140625,2.0898438,-1.9687500,0.8522339,0.4273071,-0.2617798,-0.1502075,0.8769531,-2.4042969,0.1269531
6606.7,-15.5937500,4.3437500,-1.3828125,0.8292847,0.4145508,-0.3587036,-0.1083374,3.4433594,6.0546875,-5.3300781
6636.0,-15.2421875,4.0781250,-1.2812500,0.8234253,0.4259644,-0.3519287,-0.1292114,-0.5117188,-4.5253906,-0.8652344
6641.4,-6.9687500,-0.5742188,-1.1601562,0.8182983,0.4172363,-0.3684082,-0.1436157,-2.2343750,-7.9121094,1.8164062
6646.0,-3.8593750,-2.7500000,-0.7851562,0.8131104,0.4042358,-0.3889771,-0.1554565,-2.7050781,-8.3671875,3.0976562
6651.2,-2.5585938,-3.4687500,-0.6718750,0.8077393,0.3879395,-0.4121094,-0.1649780,-3.1269531,-8.8417969,4.3632812
6656.2,-1.3671875,-4.0859375,-0.5117188,0.8023682,0.3695679,-0.4359741,-0.1718750,-3.4121094,-9.1542969,5.4531250
6660.8,-0.1484375,-4.6445312,-0.2890625,0.7973633,0.3512573,-0.4579468,-0.1763306,-3.5449219,-9.2480469,6.3046875
6666.6,2.7578125,-5.2070312,0.3945312,0.7916260,0.3296509,-0.4824219,-0.1788940,-3.5175781,-9.1816406,6.9238281
6671.2,4.2500000,-4.9101562,0.9414062,0.7853394,0.3067017,-0.5068970,-0.1794434,-3.3945312,-9.0097656,7.3632812
6676.2,5.9140625,-4.5429688,1.2812500,0.7791138,0.2849731,-0.5289917,-0.1785889,-3.1953125,-8.7773438,7.6484375
6681.0,7.3945312,-4.2421875,1.4531250,0.7728271,0.2639771,-0.5494995,-0.1763916,-2.9003906,-8.4882812,7.8164062
6686.0,9.4882812,-4.4492188,1.4687500,0.7656860,0.2420044,-0.5704346,-0.1724854,-2.5332031,-8.1582031,7.8515625
6691.2,9.7070312,-4.3515625,1.4648438,0.7581787,0.2206421,-0.5903320,-0.1672974,-2.0917969,-7.7285156,7.7636719
6696.0,9.5117188,-4.3984375,1.5156250,0.7509766,0.2015991,-0.6077271,-0.1613770,-1.5839844,-7.1113281,7.5371094
6700.8,9.1054688,-4.5468750,1.7500000,0.7442627,0.1846313,-0.6228638,-0.1548462,-1.0292969,-6.2753906,7.2011719
6706.4,8.1406250,-4.7421875,1.9375000,0.7380371,0.1690063,-0.6364746,-0.1472168,-0.5019531,-5.2695312,6.7519531
6711.2,7.0429688,-4.3359375,2.2890625,0.7322388,0.1543579,-0.6488037,-0.1381836,-0.0136719,-4.2304688,6.1601562
6716.2,5.7382812,-3.6601562,2.5937500,0.7279053,0.1431885,-0.6578979,-0.1299438,0.4296875,-3.2675781,5.4628906
6720.8,4.4023438,-2.9335938,2.6562500,0.7245483,0.1344604,-0.6648560,-0.1221313,0.8203125,-2.4824219,4.6738281
6726.0,2.1835938,-1.5664062,2.3007812,0.7216187,0.1275024,-0.6707764,-0.1142578,1.1445312,-1.9121094,3.8027344
6731.2,1.2226562,-0.9257812,2.5117188,0.7191162,0.1226807,-0.6755371,-0.1071777,1.3671875,-1.5449219,2.9218750
6736.0,0.3515625,-0.5507812,2.7773438,0.7168579,0.1198730,-0.6793213,-0.1015625,1.4628906,-1.3906250,2.0781250
6740.8,-0.6484375,-0.2968750,2.8164062,0.7144775,0.1185913,-0.6826172,-0.0973511,1.4453125,-1.4531250,1.3203125
6745.8,-3.7148438,0.4414062,2.5781250,0.7114868,0.1184082,-0.6862183,-0.0941772,1.3457031,-1.6953125,0.6796875
6751.2,-5.4335938,1.0781250,2.4375000,0.7078247,0.1190186,-0.6901245,-0.0921631,1.1933594,-2.0683594,0.1855469
6756.2,-6.9804688,1.6445312,2.2929688,0.7036133,0.1198730,-0.6943970,-0.0913696,1.0390625,-2.4921875,-0.1425781
6761.2,-8.2109375,1.9531250,1.9531250,0.6988525,0.1209106,-0.6990356,-0.0913086,0.9179688,-2.8457031,-0.3183594
6766.2,-8.9921875,1.9804688,1.1484375,0.6930542,0.1219482,-0.7045288,-0.0916748,0.7675781,-3.1855469,-0.3789062
6771.2,-8.5156250,1.7773438,0.9062500,0.6867065,0.1226196,-0.7105103,-0.0924683,0.5761719,-3.5468750,-0.3398438
6776.4,-7.5273438,1.4843750,0.5781250,0.6796875,0.1228027,-0.7171021,-0.0935669,0.3691406,-3.9765625,-0.2558594
6780.7,-6.2734375,1.1601562,0.2890625,0.6726074,0.1222534,-0.7236328,-0.0948486,0.1523438,-4.4902344,-0.1035156
6786.2,-3.8710938,0.1953125,-1.1015625,0.6640015,0.1209106,-0.7315674,-0.0963745,-0.0234375,-5.0312500,0.1250000
6791.2,-2.7187500,-0.4765625,-1.4726562,0.6535034,0.1185913,-0.7411499,-0.0979614,-0.0937500,-5.5507812,0.4511719
6796.4,-1.6328125,-1.0468750,-1.7890625,0.6430664,0.1155396,-0.7505493,-0.0988770,-0.0371094,-6.0000000,0.8945312
6800.8,-0.3437500,-1.5742188,-2.0195312,0.6322632,0.1118774,-0.7601929,-0.0988770,0.1250000,-6.3261719,1.3925781
6806.0,2.4648438,-2.6093750,-2.8828125,0.6196289,0.1069946,-0.7714233,-0.0977173,0.3906250,-6.4746094,1.8769531
6811.0,3.9492188,-3.1054688,-2.7460938,0.6084595,0.1024170,-0.7811279,-0.0955811,0.6953125,-6.4628906,2.2714844
6816.4,5.4179688,-3.5820312,-2.4218750,0.5954590,0.0968628,-0.7922363,-0.0917358,1.0429688,-6.3144531,2.5527344
6821.0,7.0390625,-4.2695312,-2.4882812,0.5840454,0.0920410,-0.8017578,-0.0872803,1.4277344,-6.0312500,2.6855469
6826.2,9.2226562,-5.0976562,-3.3789062,0.5719604,0.0873413,-0.8115845,-0.0812378,1.8632812,-5.6503906,2.6972656
6831.2,10.0312500,-5.2539062,-3.7265625,0.5610352,0.0835571,-0.8201904,-0.0745239,2.3281250,-5.1230469,2.6171875
6836.4,10.4414062,-5.3867188,-4.1640625,0.5509033,0.0807495,-0.8279419,-0.0667114,2.7871094,-4.4589844,2.4472656
6840.8,11.2460938,-5.8007812,-5.1289062,0.5428467,0.0792236,-0.8339844,-0.0590820,3.1855469,-3.8066406,2.1406250
6846.2,11.9804688,-5.3046875,-7.8203125,0.5347290,0.0790405,-0.8398438,-0.0497437,3.5312500,-3.1210938,1.6972656
6851.2,11.4648438,-4.5039062,-8.6210938,0.5282593,0.0803833,-0.8442993,-0.0408936,3.7695312,-2.5214844,1.1191406
6856.6,10.8359375,-3.7421875,-9.2929688,0.5227661,0.0834961,-0.8477783,-0.0320435,4.0097656,-1.8710938,0.3886719
6861.0,9.8554688,-2.5507812,-10.0117188,0.5189819,0.0881958,-0.8498535,-0.0244751,4.2167969,-1.1933594,-0.4902344
6866.2,6.8554688,-0.6679688,-11.5078125,0.5158691,0.0957642,-0.8511353,-0.0167847,4.2714844,-0.6445312,-1.5058594
6871.2,5.0937500,-0.6093750,-11.7890625,0.5137939,0.1052246,-0.8513794,-0.0109253,4.0605469,-0.3125000,-2.6718750
6876.6,3.2343750,-1.1718750,-11.9726562,0.5123291,0.1170654,-0.8507080,-0.0070190,3.6992188,0.0234375,-3.9375000
6881.0,1.0234375,-1.8242188,-11.6093750,0.5120239,0.1300049,-0.8490601,-0.0055542,3.4316406,0.7050781,-5.2324219
6886.2,-2.9062500,-3.2460938,-9.9960938,0.5133057,0.1473999,-0.8453979,-0.0056152,3.1640625,1.5761719,-6.4550781
6891.2,-4.5898438,-3.7773438,-9.0390625,0.5166016,0.1666260,-0.8397827,-0.0073853,2.9414062,2.6796875,-7.5800781
6896.4,-6.2070312,-4.2500000,-8.1054688,0.5220947,0.1867676,-0.8321533,-0.0103760,2.7597656,3.9902344,-8.5976562
6900.7,-7.8828125,-4.5429688,-7.1210938,0.5296631,0.2080078,-0.8222046,-0.0143433,2.4804688,5.1640625,-9.5039062
6906.4,-9.5820312,-4.6445312,-6.1601562,0.5394287,0.2308350,-0.8095093,-0.0199585,2.0761719,6.1425781,-10.2910156
6911.2,-12.0546875,-4.0976562,-4.1132812,0.5517578,0.2564697,-0.7930908,-0.0275269,1.6093750,7.0175781,-10.9941406
6916.4,-12.8046875,-3.8125000,-3.3125000,0.5642700,0.2803345,-0.7756958,-0.0356445,1.1445312,7.7988281,-11.5722656
6921.0,-13.3710938,-3.6328125,-2.6640625,0.5770264,0.3030396,-0.7571411,-0.0443115,0.7089844,8.4453125,-12.0312500
6926.4,-14.8203125,-3.0976562,-1.6953125,0.5925903,0.3295288,-0.7329712,-0.0552368,0.3593750,9.0097656,-12.3886719
6931.2,-15.4726562,-3.1250000,-1.5195312,0.6069336,0.3533936,-0.7088013,-0.0657349,0.1406250,9.4433594,-12.6777344
6936.4,-16.1757812,-3.2070312,-1.4375000,0.6214600,0.3775635,-0.6821289,-0.0767212,-0.0097656,9.7324219,-12.8906250
6940.5,-16.8945312,-3.3828125,-1.4570312,0.6341553,0.3991089,-0.6564941,-0.0867310,-0.1132812,9.8535156,-13.0156250
6945.8,-17.4257812,-3.4687500,-1.6640625,0.6470947,0.4217529,-0.6276245,-0.0975342,-0.1972656,9.8828125,-13.0410156
6951.2,-18.7148438,-2.9921875,-1.7304688,0.6594238,0.4443359,-0.5965576,-0.1087036,-0.2480469,9.9003906,-12.9746094
6956.4,-18.8554688,-2.8945312,-2.0273438,0.6712036,0.4668579,-0.5631714,-0.1199341,-0.2617188,9.9062500,-12.8496094
6960.5,-18.9257812,-2.7187500,-2.2890625,0.6802979,0.4852295,-0.5338745,-0.1292114,-0.2578125,9.8769531,-12.6796875
6969.0,-20.3515625,-1.4257812,-2.2734375,0.6890259,0.5041504,-0.5017700,-0.1387939,-0.2382812,9.7675781,-12.4941406
6976.4,-20.1171875,-1.2968750,-2.6093750,0.6968384,0.5226440,-0.4682007,-0.1483765,-0.2617188,9.2578125,-11.9902344
6987.0,-20.2109375,-0.1445312,-2.3515625,0.7086182,0.5557251,-0.4016113,-0.1665649,-0.4140625,8.4433594,-11.1933594
6991.2,-20.3046875,1.2617188,-1.3437500,0.7156982,0.5821533,-0.3395996,-0.1831055,-0.5781250,7.9707031,-10.6894531
6996.4,-19.8320312,1.8164062,-0.9531250,0.7182007,0.5931396,-0.3095703,-0.1911621,-0.8046875,7.4394531,-10.1289062
7000.5,-19.6171875,2.0312500,-0.4765625,0.7200317,0.6013794,-0.2839355,-0.1982422,-1.0898438,6.8515625,-9.5351562
7005.7,-19.4257812,2.1562500,0.3593750,0.7216797,0.6085205,-0.2578735,-0.2057495,-1.4394531,6.2285156,-8.8984375
7022.0,-18.0625000,2.5859375,2.5078125,0.7272949,0.6189575,-0.1900635,-0.2277832,-2.7109375,4.1621094,-6.7167969
7026.4,-17.3476562,2.1835938,2.8281250,0.7299805,0.6186523,-0.1710815,-0.2348022,-3.1210938,3.5351562,-5.9082031
7031.0,-15.8007812,1.4335938,3.2343750,0.7332764,0.6166382,-0.1539917,-0.2414551,-3.4941406,2.9687500,-5.0722656
7036.4,-14.4140625,1.2578125,3.1796875,0.7370605,0.6132812,-0.1396484,-0.2471313,-3.7988281,2.4609375,-4.1992188
7040.7,-13.1523438,1.3828125,3.2148438,0.7412720,0.6088867,-0.1278687,-0.2517700,-4.0175781,2.0156250,-3.2929688
7045.8,-11.8164062,0.9960938,2.8828125,0.7461548,0.6033936,-0.1176758,-0.2555542,-4.1250000,1.6347656,-2.4003906
7050.2,-9.9492188,0.1875000,2.3867188,0.7515259,0.5971680,-0.1093750,-0.2581787,-4.1386719,1.3066406,-1.5097656
7056.6,-9.1601562,-0.2109375,2.0898438,0.7576294,0.5899658,-0.1024170,-0.2596436,-4.0351562,1.0273438,-0.6210938
7061.0,-8.3945312,-0.6679688,1.7617188,0.7630615,0.5836182,-0.0982056,-0.2597656,-3.8554688,0.7519531,0.2070312
7066.2,-7.9257812,-0.7578125,1.5742188,0.7694702,0.5761719,-0.0952148,-0.2586060,-3.6679688,0.4687500,0.9687500
7071.2,-6.7539062,-0.5976562,1.4335938,0.7752075,0.5695190,-0.0941162,-0.2565918,-3.4746094,0.2304688,1.6464844
7076.6,-6.1914062,-0.5195312,1.3632812,0.7816772,0.5620728,-0.0944824,-0.2532959,-3.3261719,-0.0058594,2.2207031
7080.5,-5.6835938,-0.6289062,1.2812500,0.7872314,0.5556030,-0.0958862,-0.2497559,-3.1914062,-0.1953125,2.7207031
7088.9,-4.4375000,-1.4257812,1.6523438,0.7935181,0.5482788,-0.0985718,-0.2449951,-3.0898438,-0.3691406,3.1562500
7100.2,-3.6015625,-1.9179688,2.0078125,0.8056030,0.5337524,-0.1065674,-0.2340698,-3.0527344,-0.7421875,3.8964844
7102.0,-3.3085938,-2.1796875,2.1132812,0.8117676,0.5259399,-0.1117554,-0.2279663,-3.1562500,-0.9648438,4.2363281
7106.0,-2.6914062,-2.4414062,2.0546875,0.8182983,0.5172119,-0.1179810,-0.2212524,-3.3125000,-1.2089844,4.5468750
7110.2,-2.0859375,-2.7929688,1.9804688,0.8247070,0.5081787,-0.1247559,-0.2144775,-3.4941406,-1.4960938,4.8535156
7169.0,4.6992188,-8.6601562,-3.8476562,0.9326172,0.3190308,-0.1659546,-0.0296021,-4.9218750,-8.7675781,7.7441406
7190.4,1.7382812,-5.8632812,-6.4570312,0.9168701,0.3678589,-0.1497803,-0.0397339,-4.1992188,-13.7617188,8.5195312
7196.2,1.8789062,-7.3320312,-9.2929688,0.9166870,0.3470459,-0.1954956,-0.0322876,-3.8261719,-15.3808594,8.7734375
7201.0,1.9062500,-7.2578125,-9.3828125,0.9133911,0.3287354,-0.2387695,-0.0255737,-3.6289062,-15.3671875,8.8281250
7206.2,2.0664062,-7.2617188,-9.5234375,0.9074707,0.3107910,-0.2819824,-0.0185547,-3.4316406,-15.4277344,8.9082031
7214.6,4.0742188,-8.3476562,-10.6562500,0.8996582,0.2940063,-0.3224487,-0.0115356,-3.2265625,-15.4082031,8.9863281
7226.7,4.2421875,-7.7070312,-10.8632812,0.8771973,0.2621460,-0.4022827,0.0032959,-2.3437500,-14.2148438,9.1503906
7230.7,6.1367188,-7.1328125,-12.3593750,0.8483887,0.2305298,-0.4760742,0.0215454,-1.9335938,-13.4414062,9.0859375
7235.7,6.8046875,-6.3085938,-12.6875000,0.8330078,0.2149048,-0.5087891,0.0322876,-1.5292969,-12.5937500,8.8906250
7241.2,7.1250000,-5.2343750,-12.7734375,0.8156128,0.1992188,-0.5413818,0.0442505,-1.1171875,-11.7480469,8.5820312
7246.4,7.1250000,-4.2031250,-12.6054688,0.7993164,0.1857910,-0.5688477,0.0554199,-0.7519531,-10.9179688,8.1289062
7261.3,5.2460938,-3.7226562,-9.0351562,0.7528687,0.1558838,-0.6340332,0.0831299,-0.1835938,-8.8437500,6.0664062
7268.6,2.4257812,-4.0781250,-7.2226562,0.7374878,0.1469727,-0.6528320,0.0913086,-0.2148438,-8.2460938,5.1757812
7270.3,2.3867188,-3.8593750,-6.8554688,0.7239990,0.1399536,-0.6684570,0.0972900,-0.3105469,-7.5664062,4.2480469
7275.2,1.4414062,-3.5390625,-6.0390625,0.7106323,0.1336060,-0.6832275,0.1018677,-0.4921875,-6.7851562,3.3437500
7281.2,0.7890625,-3.0585938,-5.2539062,0.6982422,0.1281738,-0.6964111,0.1047363,-0.7265625,-5.9414062,2.4960938
7286.2,0.3867188,-2.7382812,-4.5273438,0.6882324,0.1237793,-0.7069702,0.1057739,-1.0332031,-5.1074219,1.7500000
7290.1,-0.0351562,-2.2265625,-4.1992188,0.6804199,0.1201782,-0.7152100,0.1052856,-1.3652344,-4.3691406,1.0761719
7295.8,-0.3203125,-1.9375000,-4.2187500,0.6730347,0.1166382,-0.7230225,0.1032715,-1.6289062,-3.7382812,0.4589844
7301.0,-0.5976562,-1.5664062,-4.3125000,0.6668091,0.1137695,-0.7296753,0.0997925,-1.7812500,-3.2128906,-0.1191406
7306.2,-0.7148438,-1.2343750,-4.4570312,0.6619263,0.1118164,-0.7349854,0.0955200,-1.8125000,-2.7363281,-0.6621094
7310.7,-0.1835938,-0.8945312,-5.3671875,0.6581421,0.1108398,-0.7391357,0.0907593,-1.7050781,-2.2597656,-1.1406250
7316.0,0.5000000,-1.1171875,-5.7578125,0.6549072,0.1109009,-0.7426758,0.0850830,-1.4550781,-1.6972656,-1.5683594
7321.0,1.2343750,-1.3789062,-6.3320312,0.6530151,0.1120605,-0.7447510,0.0798950,-1.0976562,-1.0859375,-1.9531250
7326.2,1.9296875,-1.7890625,-6.8281250,0.6521606,0.1144409,-0.7456665,0.0748291,-0.6777344,-0.4687500,-2.3027344
7340.9,3.4687500,-1.2265625,-8.4414062,0.6549683,0.1290283,-0.7420044,0.0619507,0.5625000,0.8945312,-3.1933594
7350.2,3.9726562,0.0117188,-9.3242188,0.6572266,0.1361694,-0.7390137,0.0584106,0.8984375,1.2792969,-3.4140625
7354.4,3.9609375,-0.2460938,-9.5078125,0.6599731,0.1438599,-0.7352905,0.0553589,1.1933594,1.6875000,-3.6464844
7357.7,4.1484375,-0.3085938,-9.9921875,0.6635132,0.1527710,-0.7305298,0.0523071,1.4101562,2.0800781,-3.9199219
7366.5,4.3242188,-0.6640625,-10.5664062,0.6674805,0.1620483,-0.7250977,0.0492554,1.5058594,2.7753906,-4.6269531
7370.3,3.8203125,-1.3710938,-10.9375000,0.6770630,0.1826782,-0.7116699,0.0416870,1.3906250,3.1269531,-5.0488281
7375.0,3.0859375,-2.1406250,-11.0585938,0.6831055,0.1890869,-0.7046509,0.0324097,1.2558594,3.6074219,-5.5097656
7381.2,1.8593750,-3.0625000,-11.0859375,0.6905518,0.1973267,-0.6954956,0.0219116,1.1191406,4.2773438,-6.0039062
7386.4,0.4492188,-4.1132812,-10.9804688,0.6985474,0.2056885,-0.6853027,0.0109863,0.9667969,5.0214844,-6.5585938
7401.1,-6.8164062,-7.8437500,-8.3320312,0.7283936,0.2427979,-0.6404419,-0.0187378,0.5058594,7.9218750,-8.8144531
7410.4,-13.1523438,-8.1445312,-7.1328125,0.7406616,0.2550659,-0.6206665,-0.0335693,0.4121094,9.1074219,-9.7792969
7416.5,-15.3710938,-8.4023438,-7.6562500,0.7540283,0.2720947,-0.5961304,-0.0454102,0.5371094,11.7695312,-11.8964844
7420.7,-18.1953125,-7.9882812,-8.1718750,0.7835693,0.3121338,-0.5322266,-0.0729370,0.7285156,13.0605469,-13.0078125
7426.0,-21.0703125,-7.2226562,-8.7382812,0.7969971,0.3327637,-0.4965210,-0.0866699,1.0214844,14.2421875,-14.0996094
7441.4,-28.8750000,-3.0390625,-11.5585938,0.8213501,0.3804321,-0.4085083,-0.1173706,2.3398438,16.6816406,-16.8183594
7449.9,-31.9257812,0.8828125,-12.8750000,0.8352661,0.4313354,-0.3067017,-0.1490479,2.8691406,17.0546875,-17.5136719
7454.9,-31.5078125,2.4414062,-13.1093750,0.8368530,0.4564819,-0.2534180,-0.1645508,3.3710938,17.2050781,-18.0273438
7457.4,-31.0507812,3.0390625,-12.9726562,0.8346558,0.4810181,-0.1989136,-0.1799316,3.7656250,17.0664062,-18.3046875
7460.9,-29.9179688,2.8593750,-12.9023438,0.8286743,0.5043335,-0.1441040,-0.1951904,3.9960938,16.6347656,-18.3027344
7465.8,-29.4726562,4.1718750,-12.0898438,0.8189087,0.5265503,-0.0881348,-0.2105103,4.0507812,16.0019531,-17.9531250
7469.7,-28.4414062,5.7304688,-11.1367188,0.8067017,0.5455933,-0.0358887,-0.2243042,3.9785156,15.2988281,-17.2187500
7475.0,-26.3281250,6.8046875,-8.6054688,0.7924194,0.5620728,0.0139771,-0.2366333,3.7597656,14.5527344,-16.1914062
7481.4,-24.1757812,6.5507812,-6.7929688,0.7753296,0.5770874,0.0652466,-0.2482300,3.3320312,13.6171875,-14.8867188
7486.2,-21.8476562,6.0937500,-5.0078125,0.7595215,0.5878296,0.1081543,-0.2567749,2.6933594,12.5000000,-13.3964844
7490.0,-19.0898438,5.3046875,-3.3906250,0.7449951,0.5953979,0.1455688,-0.2632446,1.8652344,11.1796875,-11.7539062
7495.0,-13.9531250,1.9687500,-1.3828125,0.7316284,0.6004028,0.1796875,-0.2681274,0.9003906,9.7324219,-9.9785156
7501.4,-11.1523438,0.5859375,-0.1953125,0.7201538,0.6027222,0.2108154,-0.2714844,-0.2363281,8.0742188,-8.1152344
7506.2,-8.3125000,-0.4882812,0.3828125,0.7124634,0.6020508,0.2354126,-0.2729492,-1.4511719,6.3007812,-6.1640625
7509.8,-5.8437500,-1.0585938,0.6757812,0.7090454,0.5992432,0.2525635,-0.2727051,-2.6601562,4.5703125,-4.1386719
7515.0,-1.7343750,-0.9648438,1.8085938,0.7093506,0.5941162,0.2658691,-0.2705078,-3.7910156,2.9667969,-2.1289062
7521.4,-0.1054688,-0.5820312,2.4726562,0.7136841,0.5867310,0.2750854,-0.2660522,-4.7480469,1.5800781,-0.2382812
7526.2,1.0703125,-0.6289062,3.0976562,0.7209473,0.5784912,0.2794189,-0.2597656,-5.4941406,0.4453125,1.4218750
7530.0,1.8281250,-0.9140625,3.5117188,0.7297974,0.5703125,0.2799072,-0.2525635,-5.9687500,-0.4863281,2.8691406
7535.0,3.0429688,-1.3125000,4.0312500,0.7410278,0.5611572,0.2770996,-0.2432861,-6.1738281,-1.2656250,4.0429688
7541.4,3.4179688,-1.4414062,4.1601562,0.7542725,0.5510864,0.2712402,-0.2319946,-6.1718750,-1.8183594,4.9023438
7546.2,3.8203125,-1.6289062,4.2617188,0.7670898,0.5416870,0.2636719,-0.2205200,-6.0078125,-2.1367188,5.4609375
7549.8,4.2968750,-1.7148438,4.0742188,0.7784424,0.5335693,0.2557373,-0.2097168,-5.7402344,-2.2070312,5.7890625
7555.0,4.8085938,-1.3750000,3.9765625,0.7900391,0.5253296,0.2467041,-0.1976318,-5.4394531,-2.0468750,5.9257812
7561.4,4.7929688,-1.1914062,3.7656250,0.8016357,0.5169678,0.2370605,-0.1842041,-5.0664062,-1.6894531,5.8964844
7566.0,4.9687500,-0.9257812,3.4609375,0.8113403,0.5099487,0.2287598,-0.1714478,-4.6445312,-1.2187500,5.7246094
7569.8,5.2695312,-0.5781250,3.0546875,0.8193970,0.5039062,0.2218628,-0.1593628,-4.2539062,-0.7460938,5.4531250
7575.2,5.8085938,-0.0195312,2.6875000,0.8267822,0.4982910,0.2156982,-0.1470337,-3.9121094,-0.3300781,5.1191406
7581.6,5.6835938,0.0000000,2.4882812,0.8337402,0.4926758,0.2101440,-0.1340942,-3.6386719,0.0039062,4.7343750
7586.0,5.5117188,-0.0585938,2.4960938,0.8392944,0.4878540,0.2061157,-0.1227417,-3.3828125,0.3632812,4.3164062
7589.8,5.2265625,0.0898438,2.6367188,0.8440552,0.4833984,0.2032471,-0.1123047,-3.2187500,0.6191406,3.8886719
7595.2,5.1835938,0.5039062,2.9101562,0.8485107,0.4787598,0.2010498,-0.1021729,-3.1933594,0.7070312,3.5078125
7601.6,5.1796875,0.5546875,2.6171875,0.8531494,0.4733276,0.1990967,-0.0918579,-3.2753906,0.6464844,3.1855469
7606.2,5.3007812,0.2148438,2.3203125,0.8575439,0.4677734,0.1973267,-0.0830078,-3.4687500,0.3730469,2.9257812
7609.8,5.4257812,-0.7343750,2.2343750,0.8618164,0.4620361,0.1951294,-0.0756836,-3.7304688,-0.1308594,2.7460938
7615.0,5.6562500,-3.8046875,1.7500000,0.8669434,0.4549561,0.1916504,-0.0686035,-4.0566406,-0.8867188,2.6562500
7621.4,5.6875000,-5.2265625,1.1562500,0.8732910,0.4461670,0.1857910,-0.0618286,-4.4433594,-1.9335938,2.6933594
7626.0,5.7968750,-6.4570312,0.4140625,0.8800659,0.4368286,0.1776123,-0.0564575,-4.9355469,-3.2988281,2.8906250
7629.8,5.9140625,-7.2148438,-0.5234375,0.8874512,0.4266357,0.1664429,-0.0520630,-5.4804688,-4.9296875,3.2480469
7635.2,6.1562500,-8.0859375,-2.7343750,0.8961792,0.4146118,0.1505127,-0.0481567,-6.0488281,-6.7929688,3.7656250
7641.4,5.7851562,-8.1796875,-3.9453125,0.9064331,0.4000244,0.1279907,-0.0443726,-6.5156250,-8.7753906,4.4042969
7646.0,5.2812500,-8.2382812,-5.1210938,0.9160767,0.3854980,0.1022339,-0.0412598,-6.7890625,-10.6972656,5.0585938
7649.8,4.6875000,-8.2460938,-6.0546875,0.9251709,0.3706055,0.0725708,-0.0385132,-6.8652344,-12.5175781,5.6796875
7655.2,3.8593750,-8.3203125,-7.2187500,0.9335938,0.3545532,0.0371704,-0.0358276,-6.7773438,-14.1875000,6.2343750
7661.4,2.7265625,-8.1796875,-7.8515625,0.9410400,0.3366699,-0.0057983,-0.0330811,-6.6171875,-15.6582031,6.7304688
7666.0,1.6093750,-7.9687500,-8.2656250,0.9457397,0.3198853,-0.0487061,-0.0305176,-6.4179688,-16.9121094,7.1679688
7669.8,0.5273438,-7.7617188,-8.5000000,0.9479370,0.3033447,-0.0928955,-0.0278931,-6.1621094,-17.8574219,7.5410156
7675.2,-0.2617188,-7.7304688,-8.9648438,0.9475708,0.2858887,-0.1408081,-0.0247192,-5.8691406,-18.5156250,7.9160156
7681.4,-1.0195312,-7.5273438,-9.1367188,0.9438477,0.2666626,-0.1939697,-0.0206299,-5.5527344,-18.9121094,8.2597656
7686.0,-1.4140625,-7.3359375,-9.2148438,0.9374390,0.2489014,-0.2429810,-0.0161133,-5.2265625,-19.0585938,8.5820312
7689.8,-1.5078125,-7.1367188,-9.1484375,0.9284668,0.2315674,-0.2901611,-0.0108032,-4.9179688,-19.0390625,8.9218750
7695.0,-0.4726562,-7.6875000,-9.5312500,0.9165039,0.2133789,-0.3382568,-0.0042114,-4.5976562,-18.8535156,9.2597656
7701.4,-0.2265625,-7.8085938,-9.5273438,0.9009399,0.1937866,-0.3881836,0.0041504,-4.2617188,-18.5371094,9.6132812
7706.2,-0.0781250,-8.0195312,-9.6835938,0.8834229,0.1747437,-0.4345093,0.0134888,-3.8984375,-18.0800781,9.9550781
7807.0,3.4648438,-4.3750000,-5.9101562,0.4984741,-0.0524902,-0.8439331,0.1912842,0.1113281,-1.7773438,-1.6699219
7830.4,3.3476562,-4.6250000,-5.9335938,0.5001831,-0.0361328,-0.8458862,0.1816406,0.8593750,2.3886719,-6.2539062
7835.0,6.8750000,-2.1445312,-10.9843750,0.5090332,-0.0224609,-0.8424683,0.1750488,1.0253906,3.4863281,-7.4980469
7840.2,6.7539062,-2.8554688,-11.2343750,0.5203247,-0.0059204,-0.8375244,0.1667480,0.9550781,3.7050781,-7.6992188
7845.8,6.4335938,-3.6953125,-11.1757812,0.5310669,0.0093384,-0.8322754,0.1587524,0.9023438,4.1015625,-8.0410156
7850.2,5.7929688,-4.8593750,-11.0156250,0.5437012,0.0266724,-0.8254395,0.1492310,0.8515625,4.6328125,-8.4433594
7855.2,3.6640625,-7.5351562,-10.0117188,0.5562134,0.0430298,-0.8180542,0.1397705,0.7480469,5.2363281,-8.9218750
7860.2,1.7070312,-9.1875000,-9.4257812,0.5714722,0.0620728,-0.8081665,0.1281128,0.5957031,5.9199219,-9.5019531
7865.8,-0.6640625,-10.9179688,-8.5156250,0.5857544,0.0791016,-0.7980957,0.1170044,0.4570312,6.7597656,-10.2148438
7870.4,-3.3125000,-12.8789062,-7.5585938,0.6061401,0.0761719,-0.7872314,0.0842896,0.3222656,7.6699219,-11.0644531
7875.4,-8.8476562,-15.9609375,-5.8906250,0.6242676,0.0787964,-0.7752686,0.0551758,0.1953125,8.6093750,-12.0585938
7880.2,-11.7187500,-17.2265625,-5.6875000,0.6442261,0.0895386,-0.7591553,0.0249023,0.0761719,9.5996094,-13.1816406
7885.8,-14.7109375,-18.3906250,-5.8242188,0.6626587,0.1138916,-0.7401733,0.0059204,-0.0058594,10.5976562,-14.4082031
7890.4,-17.9492188,-19.3906250,-6.4140625,0.6834717,0.1426392,-0.7156982,-0.0168457,-0.0253906,11.6015625,-15.7324219
7895.4,-24.9804688,-20.2890625,-8.2070312,0.7025146,0.1709595,-0.6897583,-0.0393677,0.0917969,12.5507812,-17.0800781
7900.2,-28.3242188,-20.5195312,-9.8476562,0.7227783,0.2045288,-0.6568604,-0.0657959,0.3652344,13.3964844,-18.4394531
7905.8,-30.9687500,-20.2187500,-11.3750000,0.7398071,0.2372437,-0.6229858,-0.0908813,0.8085938,14.1855469,-19.7597656
7910.4,-32.4843750,-19.9960938,-12.9726562,0.7565308,0.2761230,-0.5806885,-0.1195679,1.4511719,14.8808594,-21.0039062
7915.2,-40.2773438,-14.9296875,-17.3632812,0.7681274,0.3115845,-0.5403442,-0.1445923,2.2617188,15.4472656,-22.1328125
7920.2,-42.2148438,-11.2304688,-19.6523438,0.7775879,0.3553467,-0.4887085,-0.1738892,3.1718750,15.7988281,-23.0605469
7925.7,-43.3710938,-6.6914062,-20.7343750,0.7809448,0.3937988,-0.4426270,-0.1979370,4.0937500,15.8339844,-23.7246094
7930.2,-44.8945312,-2.0429688,-21.3007812,0.7796631,0.4384766,-0.3861084,-0.2253418,4.9062500,15.5097656,-24.1406250
7935.4,-48.3593750,2.9843750,-20.1484375,0.7731323,0.4776611,-0.3350830,-0.2487183,5.5214844,14.9160156,-24.2207031
7940.2,-50.2148438,5.0664062,-18.2070312,0.7607422,0.5186157,-0.2789307,-0.2730713,5.9453125,14.2812500,-23.9765625
7945.8,-49.9531250,6.5156250,-16.7656250,0.7454224,0.5532837,-0.2278442,-0.2937622,6.2890625,13.8027344,-23.3144531
7950.4,-48.8437500,6.6992188,-14.3789062,0.7244263,0.5885010,-0.1723022,-0.3148804,6.2070312,12.6953125,-22.2773438
7955.0,-41.2421875,5.7734375,-10.8164062,0.7035522,0.6152954,-0.1259155,-0.3323975,5.5585938,10.9863281,-20.8320312
7960.2,-34.6796875,4.3085938,-8.7421875,0.6801758,0.6390381,-0.0798950,-0.3500977,4.5390625,9.2656250,-18.9531250
7965.7,-27.9609375,2.1406250,-7.0273438,0.6610718,0.6545410,-0.0440674,-0.3641968,3.1328125,7.5351562,-16.6308594
7970.2,-21.7460938,0.0390625,-5.9257812,0.6422729,0.6664429,-0.0078125,-0.3785400,1.5585938,5.9960938,-13.8437500
7974.8,-11.7226562,-3.5429688,-4.1289062,0.6293945,0.6731567,0.0185547,-0.3878174,0.0117188,4.6503906,-10.6738281
7980.2,-7.4101562,-4.4375000,-3.5664062,0.6212158,0.6752930,0.0414429,-0.3953857,-1.5214844,3.2246094,-7.2421875
7984.8,-3.7734375,-4.7812500,-3.0273438,0.6193237,0.6738281,0.0561523,-0.3990479,-2.9746094,1.8808594,-3.7070312
7990.2,-0.6171875,-5.0625000,-2.5937500,0.6232910,0.6691284,0.0656738,-0.3993530,-4.1992188,0.8222656,-0.3730469
7994.8,4.1835938,-5.6640625,-1.9453125,0.6316528,0.6626587,0.0687866,-0.3964844,-5.1406250,-0.2500000,2.5273438
8000.2,5.4960938,-5.5117188,-1.5585938,0.6447144,0.6537476,0.0665894,-0.3905640,-5.8964844,-1.4726562,4.7773438
8005.8,6.5898438,-5.2421875,-1.2187500,0.6594849,0.6434937,0.0603027,-0.3838501,-6.4589844,-2.6816406,6.3691406
8010.2,6.9687500,-5.0585938,-0.7382812,0.6779175,0.6296997,0.0498047,-0.3759766,-6.8496094,-3.6250000,7.4765625
8014.8,7.6250000,-5.1914062,0.8750000,0.6958008,0.6156616,0.0377808,-0.3680420,-7.0605469,-4.1386719,8.2324219
8020.2,7.1367188,-5.2578125,1.1523438,0.7149658,0.5997925,0.0234375,-0.3585205,-7.1308594,-4.2773438,8.6542969
8025.8,6.2343750,-5.3203125,1.6562500,0.7323608,0.5845947,0.0098877,-0.3489380,-7.1230469,-4.0859375,8.7734375
8030.4,5.1015625,-5.5234375,1.9648438,0.7511597,0.5673828,-0.0046997,-0.3374634,-7.0625000,-3.6074219,8.6347656
8035.0,2.9023438,-5.2734375,2.9335938,0.7672729,0.5518188,-0.0166626,-0.3264160,-6.9746094,-2.9550781,8.2675781
8040.2,1.5429688,-4.6718750,3.1992188,0.7832031,0.5356445,-0.0272827,-0.3144531,-6.8750000,-2.2187500,7.7011719
8045.7,0.3398438,-3.7773438,3.3750000,0.7963867,0.5217896,-0.0347290,-0.3037720,-6.7187500,-1.4160156,6.9902344
8050.2,-0.7187500,-2.6328125,3.0976562,0.8104858,0.5063477,-0.0407104,-0.2915649,-6.4570312,-0.5644531,6.2207031
8054.8,-2.0937500,-0.3242188,2.5507812,0.8221436,0.4932861,-0.0437622,-0.2807617,-6.1464844,0.2851562,5.4218750
8060.2,-2.3789062,0.5546875,2.3320312,0.8331909,0.4805298,-0.0446777,-0.2700195,-5.8847656,0.8613281,4.6386719
8065.8,-2.2578125,1.1406250,2.1171875,0.8424683,0.4693604,-0.0438843,-0.2608643,-5.6777344,1.1406250,3.9375000
8070.2,-1.9296875,1.4101562,2.0390625,0.8517456,0.4574585,-0.0420532,-0.2520142,-5.5253906,1.1484375,3.3437500
8074.8,-1.1562500,0.7617188,2.1562500,0.8597412,0.4464111,-0.0400391,-0.2448120,-5.4140625,0.9492188,2.9257812
8080.2,-1.0468750,-0.1093750,2.2734375,0.8670044,0.4356689,-0.0384521,-0.2386475,-5.3457031,0.5390625,2.7324219
8085.7,-0.8554688,-1.2851562,2.3085938,0.8744507,0.4238892,-0.0377197,-0.2328491,-5.3457031,-0.0371094,2.7460938
8090.2,-0.6445312,-2.5507812,2.1406250,0.8815918,0.4116821,-0.0385742,-0.2276611,-5.5410156,-0.8789062,2.9140625
8095.0,-0.0429688,-4.5937500,0.9375000,0.8894043,0.3970337,-0.0418701,-0.2225952,-5.9394531,-2.0097656,3.2070312
8100.2,0.3320312,-5.1445312,-0.0664062,0.8963623,0.3828125,-0.0473022,-0.2185669,-6.4550781,-3.3417969,3.6230469
8104.8,0.8164062,-5.2070312,-1.3281250,0.9043579,0.3645630,-0.0567627,-0.2143555,-6.9492188,-4.7832031,4.1386719
8110.2,0.8906250,-5.4179688,-2.4335938,0.9124756,0.3439941,-0.0700684,-0.2101440,-7.3437500,-6.2851562,4.7441406
8114.8,1.2460938,-5.9882812,-4.8007812,0.9198608,0.3224487,-0.0865479,-0.2058716,-7.5820312,-7.8046875,5.3984375
8120.2,0.8632812,-6.1757812,-5.7539062,0.9263306,0.3003540,-0.1059570,-0.2013550,-7.6855469,-9.3339844,6.0625000
8124.8,0.6132812,-6.4062500,-6.7304688,0.9320679,0.2754517,-0.1304321,-0.1959839,-7.6484375,-10.7773438,6.7031250
8130.2,0.0820312,-6.5351562,-7.3945312,0.9363403,0.2488403,-0.1591797,-0.1896362,-7.4960938,-12.1171875,7.2988281
8134.8,-0.4257812,-7.1757812,-8.2460938,0.9386597,0.2225952,-0.1898804,-0.1826172,-7.2812500,-13.3144531,7.8652344
8140.2,-1.0000000,-7.2226562,-8.5390625,0.9389038,0.1968384,-0.2217407,-0.1748657,-7.0097656,-14.3105469,8.3750000
8144.8,-1.6523438,-7.1757812,-8.7695312,0.9368286,0.1691895,-0.2576294,-0.1654053,-6.6992188,-15.0234375,8.8417969
8150.2,-2.2890625,-7.0312500,-8.8398438,0.9320679,0.1398926,-0.2965088,-0.1540527,-6.3886719,-15.5351562,9.2695312
8155.0,-2.1406250,-7.0000000,-9.2578125,0.9252319,0.1126099,-0.3331909,-0.1420898,-6.0976562,-15.8476562,9.6699219
8160.2,-2.0820312,-6.5234375,-9.4257812,0.9168701,0.0872803,-0.3671875,-0.1298218,-5.8203125,-16.0097656,10.0371094
8164.8,-1.8750000,-6.0351562,-9.5703125,0.9051514,0.0588989,-0.4050293,-0.1145630,-5.5390625,-16.0839844,10.3886719
8170.2,-1.4335938,-5.6093750,-9.7382812,0.8917847,0.0317383,-0.4404907,-0.0985718,-5.2558594,-16.0351562,10.7460938
8175.2,0.1562500,-5.5937500,-10.2460938,0.8751221,0.0028076,-0.4772339,-0.0799561,-4.9316406,-15.8789062,11.0976562
8180.2,0.9023438,-5.3906250,-10.0664062,0.8574829,-0.0240479,-0.5102539,-0.0610352,-4.5898438,-15.6210938,11.4589844
8184.8,1.8007812,-5.2968750,-9.5546875,0.8399658,-0.0483398,-0.5388184,-0.0425415,-4.2402344,-15.2636719,11.8007812
8190.2,2.7539062,-5.1718750,-8.7734375,0.8181763,-0.0759888,-0.5695801,-0.0198364,-3.8964844,-14.7617188,12.1015625
8195.2,5.0742188,-5.9609375,-8.2539062,0.7960815,-0.1020508,-0.5964966,0.0029297,-3.5839844,-14.1328125,12.3359375
8200.2,6.1640625,-6.3085938,-7.2265625,0.7739868,-0.1268311,-0.6198730,0.0256348,-3.3300781,-13.4140625,12.5312500
8205.0,7.7695312,-6.4843750,-6.4687500,0.7522583,-0.1503296,-0.6397095,0.0478516,-3.1386719,-12.6386719,12.6503906
8210.2,8.8632812,-6.1640625,-5.6132812,0.7280273,-0.1759033,-0.6586304,0.0724487,-2.9765625,-11.7792969,12.6210938
8215.2,10.3281250,-6.5390625,-4.1601562,0.7050781,-0.1995239,-0.6737671,0.0953369,-2.8320312,-10.9003906,12.4394531
8220.0,10.4882812,-6.6914062,-3.2539062,0.6845703,-0.2203979,-0.6851807,0.1154175,-2.6660156,-9.9667969,12.0468750
8224.7,10.7773438,-5.8476562,-2.4140625,0.6626587,-0.2422485,-0.6953735,0.1364746,-2.5000000,-9.0605469,11.4687500
8230.2,10.8437500,-5.2695312,-1.8828125,0.6406860,-0.2635498,-0.7038574,0.1568604,-2.2949219,-8.2050781,10.6972656
8235.2,9.6679688,-5.9218750,-1.4062500,0.6210938,-0.2818604,-0.7102051,0.1744995,-2.0175781,-7.3535156,9.7519531
8240.0,9.5507812,-5.9218750,-0.5976562,0.6033936,-0.2977295,-0.7149658,0.1900024,-1.7109375,-6.4687500,8.6640625
8245.0,9.1093750,-5.3867188,0.0781250,0.5881348,-0.3108521,-0.7185059,0.2031250,-1.4179688,-5.6757812,7.5175781
8250.2,8.6484375,-4.5664062,0.4960938,0.5731201,-0.3229370,-0.7216187,0.2155762,-1.1523438,-5.0175781,6.3632812
8255.0,7.2968750,-3.7421875,0.9921875,0.5606079,-0.3320923,-0.7242432,0.2255859,-0.9277344,-4.4882812,5.2207031
8260.2,6.0937500,-3.5078125,1.5273438,0.5490723,-0.3394165,-0.7269287,0.2343140,-0.7773438,-4.1640625,4.1347656
8264.8,5.1484375,-3.1523438,1.7500000,0.5397949,-0.3441162,-0.7295532,0.2407227,-0.6113281,-3.9394531,3.1250000
8270.0,4.5703125,-2.7070312,1.6250000,0.5302124,-0.3474121,-0.7329712,0.2468872,-0.4257812,-3.7343750,2.1757812
8275.2,3.6992188,-2.1835938,0.8984375,0.5217285,-0.3488159,-0.7366943,0.2517090,-0.3750000,-3.7285156,1.3281250
8280.0,3.3476562,-2.2500000,0.4843750,0.5139160,-0.3486938,-0.7409668,0.2554321,-0.3613281,-3.8085938,0.5898438
8284.8,2.9648438,-2.3789062,0.1210938,0.5065918,-0.3472290,-0.7457275,0.2582397,-0.3710938,-3.9531250,-0.0332031
8345.0,9.9375000,-2.5585938,-7.2343750,0.3815918,-0.2809448,-0.8256226,0.3062134,1.5117188,-2.3066406,-3.2636719
8365.4,13.2226562,-6.6718750,-10.0546875,0.3833618,-0.2748413,-0.8269043,0.3061523,2.7636719,1.0859375,-5.6367188
8370.2,11.2031250,-7.0898438,-9.5742188,0.3940430,-0.2603149,-0.8272095,0.3043823,3.0683594,2.7617188,-6.9941406
8375.0,9.3515625,-7.5937500,-9.4843750,0.4074707,-0.2450562,-0.8265991,0.3010254,3.0000000,3.6621094,-7.8378906
8380.2,4.1015625,-9.5546875,-8.3320312,0.4239502,-0.2279663,-0.8251343,0.2957764,2.9882812,4.8144531,-8.9101562
8385.4,1.1523438,-9.8554688,-7.6289062,0.4450684,-0.2076416,-0.8221436,0.2878418,2.9941406,6.0605469,-10.1425781
8390.2,-1.7890625,-9.8476562,-7.0117188,0.4677734,-0.1867065,-0.8178711,0.2780762,2.9980469,7.3085938,-11.4316406
8394.8,-4.5742188,-9.7460938,-6.5703125,0.4912720,-0.1657715,-0.8123779,0.2670288,3.0156250,8.5371094,-12.7460938
8400.2,-9.5859375,-8.4218750,-6.4804688,0.5103149,-0.1085815,-0.8089600,0.2709351,3.1152344,9.7773438,-14.0078125
8405.2,-12.2031250,-7.9609375,-6.7265625,0.5410156,-0.0820923,-0.7969971,0.2557373,3.3183594,10.9257812,-15.2011719
8410.2,-14.5742188,-7.4492188,-7.2500000,0.5761108,-0.0512085,-0.7804565,0.2373657,3.7031250,12.0605469,-16.3066406
8414.8,-16.9257812,-6.4882812,-8.0078125,0.6072998,-0.0226440,-0.7630005,0.2203369,4.1777344,13.0566406,-17.3398438
8420.2,-20.4140625,-3.8554688,-9.7968750,0.6427002,0.0115356,-0.7394409,0.2000122,4.6777344,13.8417969,-18.2656250
8425.4,-22.5195312,-1.7343750,-10.6406250,0.6779175,0.0482788,-0.7115479,0.1782837,5.1835938,14.4296875,-19.0585938
8430.2,-24.3710938,1.3125000,-11.9882812,0.7111206,0.0861816,-0.6800537,0.1560669,5.7421875,14.9277344,-19.7246094
8434.8,-25.4023438,3.9648438,-13.9414062,0.7391357,0.1216431,-0.6484375,0.1355591,6.3300781,15.2558594,-20.2167969
8440.0,-26.3632812,8.9531250,-14.2460938,0.7667847,0.1610107,-0.6109619,0.1131592,6.8750000,15.3906250,-20.5527344
8445.4,-27.2734375,8.8476562,-13.9023438,0.7930298,0.2044678,-0.5669556,0.0886841,7.3339844,15.3359375,-20.6738281
8450.2,-28.3906250,7.7929688,-12.9453125,0.8137207,0.2455444,-0.5227661,0.0654297,7.5937500,15.0527344,-20.6093750
8454.7,-28.8710938,8.3203125,-11.4296875,0.8286133,0.2816772,-0.4817505,0.0446167,7.6308594,14.6328125,-20.3320312
8460.0,-27.5859375,9.5078125,-8.9062500,0.8408813,0.3188477,-0.4367676,0.0223999,7.3769531,14.1289062,-19.7578125
8465.4,-26.6210938,9.3320312,-8.0820312,0.8502197,0.3566284,-0.3871460,-0.0017090,6.6855469,13.3730469,-18.9316406
8470.2,-25.4140625,8.6718750,-7.2148438,0.8554688,0.3865967,-0.3436890,-0.0228271,5.6718750,12.4667969,-17.8300781
8474.8,-24.0937500,7.7226562,-6.3750000,0.8584595,0.4113159,-0.3034058,-0.0424194,4.5097656,11.6484375,-16.4492188
8480.2,-21.0546875,5.7382812,-4.3984375,0.8601685,0.4322510,-0.2636719,-0.0610962,3.3261719,10.9980469,-14.8300781
8485.2,-18.2226562,4.7070312,-3.8710938,0.8611450,0.4498901,-0.2231445,-0.0788574,2.1816406,10.3515625,-13.0683594
8490.2,-15.3710938,3.3828125,-3.3710938,0.8616943,0.4617310,-0.1889648,-0.0926514,0.9941406,9.5214844,-11.2695312
8494.8,-12.4453125,1.6132812,-3.1601562,0.8624268,0.4692383,-0.1591187,-0.1036377,-0.1054688,8.5937500,-9.4160156
8500.4,-7.2500000,-1.2734375,-2.9335938,0.8637085,0.4732666,-0.1318970,-0.1125488,-1.1601562,7.5312500,-7.5937500
8505.2,-5.0351562,-2.4257812,-2.7382812,0.8657837,0.4738770,-0.1073608,-0.1196899,-2.1523438,6.3027344,-5.8125000
8510.2,-3.2812500,-3.0156250,-2.1054688,0.8686523,0.4713135,-0.0885620,-0.1244507,-3.0996094,4.9160156,-4.1035156
8514.8,-1.5039062,-3.1250000,-1.7421875,0.8723755,0.4659424,-0.0752563,-0.1272583,-4.0156250,3.4433594,-2.4882812
8520.4,0.9453125,-2.2695312,-0.9101562,0.8772583,0.4577026,-0.0660400,-0.1287231,-4.8476562,2.0058594,-1.0410156
8525.2,1.3242188,-1.7578125,-0.7070312,0.8834229,0.4463501,-0.0606689,-0.1289062,-5.5136719,0.7226562,0.1972656
8530.2,0.9335938,-1.6484375,0.1328125,0.8899536,0.4337158,-0.0592041,-0.1279907,-6.0019531,-0.3671875,1.2109375
8534.8,1.3906250,-1.7031250,0.9648438,0.8964844,0.4202881,-0.0607910,-0.1262207,-6.2812500,-1.2519531,1.9980469
8540.4,0.7695312,-1.9921875,1.8046875,0.9033203,0.4055786,-0.0646973,-0.1237793,-6.3769531,-1.8808594,2.5156250
8545.2,-0.0390625,-2.0156250,2.3164062,0.9104614,0.3892212,-0.0704956,-0.1207886,-6.4355469,-2.3398438,2.7636719
8550.2,-0.9375000,-1.9570312,2.3945312,0.9170532,0.3731079,-0.0770264,-0.1178589,-6.4082031,-2.5722656,2.8457031
8554.8,-1.8281250,-1.6679688,2.4062500,0.9226074,0.3587036,-0.0831299,-0.1151123,-6.2695312,-2.4941406,2.8203125
8560.4,-3.0898438,-1.3984375,2.4765625,0.9281616,0.3435669,-0.0890503,-0.1121216,-6.0312500,-2.0917969,2.6972656
8565.2,-3.9570312,-1.1289062,2.1914062,0.9337769,0.3275757,-0.0944214,-0.1086426,-5.7089844,-1.5761719,2.5019531
8570.2,-4.6640625,-0.9882812,1.8085938,0.9385376,0.3137817,-0.0979004,-0.1055298,-5.3593750,-1.0488281,2.1757812
8596.0,-6.6171875,2.6640625,-1.1093750,0.9570312,0.2546997,-0.1012573,-0.0948486,-4.5136719,0.2421875,0.9726562
8600.9,-7.3281250,3.0117188,-2.3437500,0.9600220,0.2441406,-0.1000366,-0.0937500,-3.9804688,0.3027344,0.3339844
8605.2,-6.4023438,2.6914062,-2.6406250,0.9627075,0.2337036,-0.0988770,-0.0939331,-3.8906250,-0.0488281,0.2773438
8610.0,-5.3554688,2.2500000,-3.0156250,0.9648438,0.2243652,-0.0990601,-0.0943604,-3.9667969,-0.6699219,0.3613281
8615.2,-4.2421875,1.5351562,-3.1835938,0.9668579,0.2142944,-0.1011353,-0.0949097,-4.2265625,-1.6210938,0.5429688
8619.7,-1.7929688,-1.4570312,-3.9062500,0.9686890,0.2034302,-0.1057129,-0.0955200,-4.7246094,-2.9453125,0.8437500
8625.2,-0.6757812,-3.0507812,-4.4570312,0.9704590,0.1892700,-0.1146851,-0.0962524,-5.3730469,-4.5371094,1.2851562
8630.2,0.3515625,-4.6914062,-5.0234375,0.9718018,0.1735229,-0.1273193,-0.0965576,-6.1308594,-6.3046875,1.9121094
8635.4,1.0585938,-6.0937500,-5.4843750,0.9725342,0.1552734,-0.1442261,-0.0961304,-6.9941406,-8.2031250,2.7167969
8639.7,2.1992188,-7.9726562,-5.9921875,0.9724731,0.1356812,-0.1641235,-0.0947876,-7.9121094,-10.1582031,3.6503906
8644.4,2.1679688,-8.2851562,-5.9531250,0.9710083,0.1104736,-0.1911621,-0.0917969,-8.7597656,-12.0683594,4.6210938
8650.2,1.9062500,-8.2656250,-5.9296875,0.9672852,0.0817261,-0.2238159,-0.0870972,-9.5195312,-13.8867188,5.5839844
8655.2,1.6601562,-7.9570312,-5.9335938,0.9613037,0.0523071,-0.2579346,-0.0811768,-10.0820312,-15.4804688,6.4687500
8659.5,2.0546875,-6.8476562,-5.7343750,0.9531860,0.0232544,-0.2921753,-0.0740967,-10.3945312,-16.7929688,7.2382812
8664.2,1.9687500,-6.2539062,-5.4218750,0.9407959,-0.0107422,-0.3325806,-0.0645752,-10.4707031,-17.8281250,7.8828125
8670.0,1.9101562,-5.6015625,-5.1015625,0.9243774,-0.0460815,-0.3750000,-0.0531006,-10.3671875,-18.5859375,8.4355469
8675.2,1.9218750,-4.9296875,-4.8867188,0.9052124,-0.0796509,-0.4154053,-0.0407104,-10.1210938,-19.1093750,8.8847656
8679.7,2.4921875,-5.4023438,-4.0859375,0.8837891,-0.1113281,-0.4536743,-0.0275269,-9.7617188,-19.4042969,9.2734375
8684.2,2.5859375,-5.3828125,-3.1015625,0.8585205,-0.1434937,-0.4921265,-0.0124512,-9.3339844,-19.4687500,9.6425781
8690.0,3.0156250,-5.2343750,-2.2968750,0.8280640,-0.1773682,-0.5317993,0.0053711,-8.8417969,-19.3300781,10.0058594
8695.2,3.7421875,-4.8593750,-1.2734375,0.7971802,-0.2077637,-0.5664062,0.0233154,-8.3496094,-19.1093750,10.3828125
8699.5,5.6679688,-5.0195312,-0.5312500,0.7672729,-0.2345581,-0.5955200,0.0407104,-7.8105469,-18.6425781,10.7363281
8704.2,6.7968750,-5.1718750,0.3359375,0.7324219,-0.2633057,-0.6248779,0.0612793,-7.2265625,-18.0058594,11.0488281
8710.0,7.4765625,-5.5351562,1.1250000,0.6962280,-0.2910767,-0.6509399,0.0828857,-6.6230469,-17.2871094,11.2949219
8715.4,8.6796875,-6.4765625,1.8007812,0.6600342,-0.3170166,-0.6729736,0.1047974,-6.0000000,-16.4492188,11.4628906
8719.5,10.4921875,-8.6445312,2.0234375,0.6278687,-0.3388672,-0.6895142,0.1245728,-5.3808594,-15.5449219,11.5097656
8724.0,11.3046875,-8.8789062,2.1679688,0.5936890,-0.3610229,-0.7042236,0.1459351,-4.7695312,-14.6757812,11.4316406
8730.0,12.0507812,-8.6015625,2.2304688,0.5568848,-0.3835449,-0.7170410,0.1691284,-4.1347656,-13.8183594,11.2089844
8735.2,12.7382812,-7.7812500,2.4414062,0.5245972,-0.4020996,-0.7260132,0.1898193,-3.4062500,-12.8808594,10.7792969
8739.7,12.7148438,-5.2578125,2.2148438,0.4953003,-0.4179077,-0.7322998,0.2091064,-2.5917969,-11.8652344,10.1425781
8744.2,12.2421875,-3.8984375,2.2968750,0.4673462,-0.4318237,-0.7368774,0.2283936,-1.7363281,-10.7753906,9.2812500
8750.0,11.3359375,-3.0273438,2.4218750,0.4400024,-0.4440308,-0.7400513,0.2480469,-0.9414062,-9.7695312,8.1679688
8755.2,9.9492188,-2.7460938,2.2812500,0.4175415,-0.4523926,-0.7421265,0.2650146,-0.2890625,-8.9335938,6.8378906
8759.5,6.5585938,-2.5664062,1.9921875,0.3983154,-0.4575195,-0.7440186,0.2800293,0.2285156,-8.3203125,5.3320312
8764.2,5.5273438,-2.6289062,1.9375000,0.3807373,-0.4595947,-0.7465210,0.2941284,0.5898438,-7.8925781,3.6972656
8770.2,4.8242188,-2.8281250,1.8281250,0.3639526,-0.4584351,-0.7501831,0.3076782,0.8496094,-7.5078125,2.0664062
8775.2,4.1054688,-3.0507812,1.6875000,0.3506470,-0.4543457,-0.7544556,0.3184814,1.0292969,-7.0507812,0.5371094
8779.5,1.5859375,-3.1484375,1.7578125,0.3397827,-0.4479370,-0.7593994,0.3275146,1.1816406,-6.4843750,-0.8027344
8784.2,0.2109375,-3.1757812,1.8203125,0.3307495,-0.4392090,-0.7650146,0.3352661,1.3242188,-5.8203125,-1.9335938
8790.2,-1.0898438,-3.0820312,1.6523438,0.3233032,-0.4280396,-0.7714233,0.3422852,1.4628906,-5.1074219,-2.8378906
8795.2,-2.2148438,-2.7343750,1.3867188,0.3184814,-0.4166870,-0.7773438,0.3474731,1.5371094,-4.5058594,-3.5429688
8799.5,-3.6367188,-1.6484375,0.7539062,0.3151855,-0.4048462,-0.7830811,0.3514404,1.4609375,-4.1171875,-4.0546875
8804.2,-3.8476562,-0.9453125,0.2539062,0.3123779,-0.3920288,-0.7892456,0.3546753,1.2773438,-3.9687500,-4.3906250
8810.4,-3.9218750,-0.1914062,-0.4140625,0.3094482,-0.3776245,-0.7962036,0.3573608,1.0507812,-4.0136719,-4.5976562
8815.4,-3.7695312,0.4335938,-1.1484375,0.3063354,-0.3638916,-0.8029175,0.3593140,0.8164062,-4.1679688,-4.7265625
8819.5,-2.6289062,1.3867188,-2.3515625,0.3029785,-0.3510742,-0.8092041,0.3607178,0.6210938,-4.3632812,-4.7460938
8824.0,-1.6679688,1.7148438,-2.6875000,0.2988281,-0.3372192,-0.8160400,0.3619995,0.5332031,-4.4843750,-4.6777344
8830.2,-0.4140625,2.0546875,-2.6640625,0.2939453,-0.3222656,-0.8232422,0.3633423,0.5312500,-4.4980469,-4.5214844
8835.4,1.0664062,2.2109375,-2.6835938,0.2891235,-0.3083496,-0.8296509,0.3647461,0.5976562,-4.4023438,-4.2890625
8840.2,2.3789062,2.1601562,-2.7617188,0.2849121,-0.2963867,-0.8348389,0.3660889,0.7050781,-4.1914062,-4.0156250
8942.0,11.6953125,-2.8554688,-8.8476562,0.1666260,-0.0699463,-0.9085083,0.3767090,0.2011719,0.1386719,-6.7167969
8964.2,-2.1679688,0.9375000,-5.6992188,0.1926880,-0.0355835,-0.9088135,0.3682861,-0.1210938,5.0078125,-12.5351562
8970.4,-2.9453125,1.5195312,-5.3359375,0.2200317,-0.0088501,-0.9066772,0.3598633,-0.1523438,6.8320312,-14.4003906
8975.0,-3.7031250,1.9140625,-4.9726562,0.2463989,0.0155029,-0.9030151,0.3516235,-0.0136719,7.2226562,-14.6035156
8980.2,-4.8359375,2.5117188,-4.0390625,0.2783203,0.0444946,-0.8966064,0.3416138,0.1601562,7.6757812,-14.8710938
8985.0,-5.5664062,2.4843750,-3.4453125,0.3081055,0.0712891,-0.8886719,0.3320923,0.3203125,8.0820312,-15.0781250
8990.4,-6.1875000,2.3085938,-2.9531250,0.3384399,0.0982666,-0.8786621,0.3221436,0.4218750,8.3828125,-15.1914062
8994.7,-6.8007812,1.9375000,-2.3984375,0.3676147,0.1240845,-0.8671875,0.3121338,0.4433594,8.6230469,-15.2167969
8999.2,-7.7304688,1.4804688,-1.9179688,0.3975220,0.1503296,-0.8535767,0.3013306,0.4042969,8.8417969,-15.1640625
9005.0,-9.6093750,1.5234375,-0.8007812,0.4287720,0.1781616,-0.8375244,0.2880249,0.3242188,9.0390625,-15.0839844
9010.4,-10.4531250,1.6445312,-0.3750000,0.4580688,0.2038574,-0.8203125,0.2750854,0.2089844,9.1953125,-14.9824219
9014.7,-11.2265625,1.7890625,-0.0625000,0.4853516,0.2274780,-0.8023682,0.2625122,0.0742188,9.3300781,-14.8964844
9019.2,-11.8750000,1.9062500,0.1523438,0.5130005,0.2510376,-0.7821655,0.2490845,-0.0683594,9.4414062,-14.8046875
9025.2,-13.1757812,2.9609375,0.2812500,0.5421753,0.2756348,-0.7584839,0.2339478,-0.2031250,9.5136719,-14.7441406
9030.4,-13.9882812,3.2421875,-0.0039062,0.5684814,0.2977295,-0.7348633,0.2193604,-0.3300781,9.5820312,-14.7226562
9034.5,-14.8593750,3.3671875,-0.3007812,0.5916748,0.3172607,-0.7120361,0.2055664,-0.4101562,9.6289062,-14.6875000
9039.2,-15.9921875,2.9375000,-0.6875000,0.6157227,0.3375854,-0.6860962,0.1903076,-0.4960938,9.6113281,-14.6582031
9045.0,-18.2773438,3.5429688,-1.0429688,0.6405029,0.3586426,-0.6566162,0.1732178,-0.6171875,9.4882812,-14.6171875
9050.4,-18.8320312,4.5625000,-1.4179688,0.6621094,0.3773193,-0.6282349,0.1566772,-0.8105469,9.2753906,-14.5273438
9054.7,-19.3164062,4.9023438,-1.5117188,0.6813354,0.3939819,-0.6007690,0.1402588,-1.0917969,8.9726562,-14.3671875
9059.2,-20.0000000,5.1484375,-1.4882812,0.6998291,0.4098511,-0.5720215,0.1226196,-1.4394531,8.6171875,-14.1152344
9065.0,-21.3945312,5.6250000,-1.3554688,0.7180786,0.4250488,-0.5413818,0.1032104,-1.8203125,8.2304688,-13.7597656
9070.4,-21.5703125,5.2421875,-1.1445312,0.7338867,0.4375000,-0.5126953,0.0844727,-2.2578125,7.8007812,-13.2695312
9074.7,-21.6562500,4.9453125,-0.9218750,0.7478027,0.4474487,-0.4860229,0.0664062,-2.7148438,7.3730469,-12.6953125
9079.2,-21.6484375,4.4921875,-0.7500000,0.7610474,0.4555664,-0.4592896,0.0476685,-3.2031250,6.9199219,-12.0683594
9084.0,-21.5781250,2.8046875,0.6992188,0.7733765,0.4615479,-0.4335938,0.0290527,-3.6875000,6.4531250,-11.3496094
9090.4,-21.7734375,1.9648438,1.7187500,0.7857056,0.4655151,-0.4072876,0.0094604,-4.1875000,5.9785156,-10.5332031
9095.0,-21.2500000,1.0937500,2.7656250,0.7959595,0.4668579,-0.3853149,-0.0075073,-4.7187500,5.4570312,-9.6171875
9100.2,-19.8828125,-0.4296875,2.8007812,0.8065796,0.4656982,-0.3632812,-0.0253296,-5.2949219,4.7753906,-8.6035156
9104.2,-18.1523438,-1.0898438,4.7070312,0.8157349,0.4622803,-0.3452759,-0.0408936,-5.8378906,4.0742188,-7.5488281
9110.6,-16.7304688,-0.7929688,5.0195312,0.8255005,0.4559326,-0.3276367,-0.0572510,-6.3105469,3.3828125,-6.4941406
9115.0,-15.0429688,-0.4531250,5.4570312,0.8334961,0.4486694,-0.3146362,-0.0703735,-6.6796875,2.7070312,-5.5078125
9120.2,-13.3320312,-1.3203125,5.4726562,0.8423462,0.4383545,-0.3019409,-0.0844116,-6.9042969,2.0781250,-4.5664062
9124.2,-11.6484375,-4.4804688,4.5507812,0.8498535,0.4276733,-0.2926025,-0.0958862,-7.0761719,1.3847656,-3.6269531
9130.2,-11.2109375,-4.3554688,3.4648438,0.8575439,0.4146118,-0.2849121,-0.1073608,-7.1269531,0.6152344,-2.6992188
9135.0,-10.9179688,-3.5117188,2.7031250,0.8639526,0.4019775,-0.2800903,-0.1164551,-6.9101562,0.0546875,-1.8066406
9140.4,-9.7070312,-3.2382812,1.3359375,0.8704224,0.3874512,-0.2768555,-0.1250000,-6.6777344,-0.4941406,-0.9726562
9144.0,-8.3710938,-2.4140625,0.5078125,0.8754272,0.3746338,-0.2757568,-0.1309814,-6.4140625,-0.9511719,-0.2031250
9150.4,-8.0781250,-2.1406250,0.6640625,0.8808594,0.3593140,-0.2762451,-0.1365356,-6.1210938,-1.3203125,0.4960938
9154.8,-8.0195312,-1.9648438,0.7578125,0.8850098,0.3464966,-0.2777710,-0.1398315,-5.7324219,-1.4843750,1.1562500
9160.2,-8.0000000,-1.9804688,0.5390625,0.8894043,0.3322144,-0.2802124,-0.1417847,-5.1718750,-1.2792969,1.7500000
9164.2,-7.6445312,-2.7539062,-0.0078125,0.8930054,0.3200684,-0.2826538,-0.1419678,-4.7363281,-1.2363281,2.2011719
9170.4,-7.7226562,-2.7968750,-0.2695312,0.8966675,0.3065796,-0.2863159,-0.1412354,-4.6835938,-1.7539062,2.4941406
9175.0,-7.6875000,-2.4687500,-0.3906250,0.8994141,0.2946777,-0.2906494,-0.1404419,-4.7109375,-2.2695312,2.7265625
9180.2,-7.4062500,-1.8515625,-0.2968750,0.9021606,0.2800903,-0.2969971,-0.1392822,-4.7714844,-2.6972656,2.9589844
9184.4,-6.2109375,-0.8320312,-0.0429688,0.9041748,0.2671509,-0.3032837,-0.1381226,-4.9238281,-3.0976562,3.1992188
9190.4,-5.5390625,-0.4375000,0.2539062,0.9061890,0.2509155,-0.3117676,-0.1365356,-5.1113281,-3.5078125,3.4316406
9194.8,-5.1718750,-0.2031250,0.5078125,0.9074707,0.2365112,-0.3197632,-0.1351318,-5.3027344,-3.9277344,3.6289062
9200.2,-4.7656250,0.1054688,0.7812500,0.9085083,0.2189331,-0.3299561,-0.1333618,-5.4882812,-4.3652344,3.7949219
9204.4,-2.7226562,-0.0664062,1.7812500,0.9088745,0.2023926,-0.3400269,-0.1318359,-5.7226562,-4.8535156,3.9531250
9210.2,-1.3437500,-0.6992188,1.7109375,0.9085083,0.1827393,-0.3524170,-0.1302490,-6.0976562,-5.5097656,4.1386719
9214.8,-0.0078125,-1.7226562,1.7812500,0.9074707,0.1643677,-0.3644409,-0.1289673,-6.6191406,-6.3378906,4.3847656
9220.4,1.0664062,-2.2929688,1.8398438,0.9050903,0.1404419,-0.3805542,-0.1276855,-7.2285156,-7.2480469,4.7070312
9224.4,3.0273438,-3.8164062,1.4921875,0.9018555,0.1183472,-0.3956909,-0.1265869,-7.8769531,-8.2109375,5.1171875
9229.2,3.6289062,-5.7304688,1.1367188,0.8964844,0.0897217,-0.4155273,-0.1251221,-8.5117188,-9.2363281,5.5644531
9234.8,3.8203125,-7.1875000,1.1875000,0.8901367,0.0633545,-0.4339600,-0.1235962,-9.1679688,-10.3925781,6.0351562
9240.4,4.0390625,-8.0000000,1.1914062,0.8801270,0.0294189,-0.4580078,-0.1215210,-9.8164062,-11.6621094,6.4960938
9244.4,4.9101562,-9.0859375,1.3906250,0.8691406,-0.0012207,-0.4799194,-0.1193848,-10.3457031,-12.9101562,6.9121094
9250.2,5.0429688,-9.0625000,1.9648438,0.8530273,-0.0391846,-0.5072632,-0.1162109,-10.5859375,-13.9101562,7.2460938
9254.7,5.5195312,-8.5625000,2.7343750,0.8366089,-0.0720215,-0.5311279,-0.1128540,-10.6347656,-14.7597656,7.4589844
9260.2,6.0898438,-7.2695312,3.5859375,0.8144531,-0.1105347,-0.5592651,-0.1080322,-10.4921875,-15.3750000,7.5585938
9264.4,6.7929688,-4.8398438,5.1445312,0.7919922,-0.1444092,-0.5841675,-0.1030884,-10.2343750,-15.8769531,7.5117188
9269.2,6.6835938,-3.7226562,6.3476562,0.7648926,-0.1804199,-0.6107788,-0.0969238,-9.8359375,-16.1601562,7.3535156
9274.8,6.0742188,-3.1640625,7.4414062,0.7380371,-0.2118530,-0.6341553,-0.0907593,-9.4550781,-16.3535156,7.1093750
9280.4,5.4101562,-2.6718750,8.3398438,0.7058105,-0.2454834,-0.6592407,-0.0834961,-9.1269531,-16.4335938,6.7929688
9284.2,3.6601562,-2.8359375,9.1914062,0.6768188,-0.2726440,-0.6794434,-0.0771484,-8.7949219,-16.3535156,6.4414062
9289.2,2.9921875,-2.9179688,9.8359375,0.6411743,-0.3027344,-0.7017212,-0.0695190,-8.4667969,-16.2246094,6.0878906
9294.7,2.6015625,-3.1875000,10.1289062,0.6101074,-0.3265381,-0.7191772,-0.0629883,-8.0644531,-16.0156250,5.7460938
9300.2,2.5312500,-3.5468750,10.1640625,0.5733643,-0.3520508,-0.7377930,-0.0550537,-7.5156250,-15.6777344,5.3984375
9304.4,2.1445312,-4.7148438,9.0117188,0.5407104,-0.3725586,-0.7527466,-0.0477295,-6.8417969,-15.1718750,5.0117188
9309.0,2.1406250,-5.1484375,8.3164062,0.5056152,-0.3924561,-0.7673340,-0.0393066,-6.1035156,-14.5429688,4.5742188
9314.8,2.0039062,-5.4804688,7.5195312,0.4747314,-0.4081421,-0.7791748,-0.0313110,-5.2929688,-13.7968750,4.1035156
9320.2,1.8242188,-5.5468750,6.7929688,0.4422607,-0.4228516,-0.7906494,-0.0222168,-4.4980469,-13.0605469,3.6269531
9324.4,1.6953125,-5.4570312,4.9960938,0.4144897,-0.4338379,-0.7998657,-0.0136108,-3.6816406,-12.3417969,3.1503906
9329.0,2.1562500,-5.1445312,4.6914062,0.3862305,-0.4434204,-0.8087769,-0.0039062,-2.8554688,-11.6582031,2.6660156
9334.8,2.5507812,-4.9218750,4.3242188,0.3624268,-0.4500122,-0.8161621,0.0054321,-1.9531250,-10.9453125,2.1601562
9340.2,2.9101562,-4.6289062,4.1132812,0.3378906,-0.4550781,-0.8236694,0.0166016,-1.0234375,-10.2460938,1.6308594
9344.4,3.1640625,-4.5625000,3.5117188,0.3190308,-0.4574585,-0.8295898,0.0267334,-0.1250000,-9.5761719,1.1015625
9349.2,3.7109375,-4.6406250,3.3750000,0.2988892,-0.4581909,-0.8361816,0.0394287,0.6660156,-8.9921875,0.5683594
9354.8,4.1640625,-4.5898438,3.2500000,0.2835693,-0.4570923,-0.8414917,0.0505371,1.2851562,-8.4902344,0.0527344
9360.2,4.6796875,-4.4140625,3.1757812,0.2669067,-0.4541626,-0.8475952,0.0639648,1.7265625,-8.0527344,-0.4199219
9364.4,4.6406250,-3.9296875,2.4960938,0.2540283,-0.4504395,-0.8526001,0.0751953,2.0078125,-7.6699219,-0.8281250
9369.2,4.4960938,-3.4726562,2.1015625,0.2398682,-0.4449463,-0.8582764,0.0883179,2.1718750,-7.3300781,-1.2128906
9374.7,4.2695312,-2.9218750,1.8085938,0.2285767,-0.4393921,-0.8630371,0.0991211,2.2246094,-7.0605469,-1.5859375
9380.2,4.2617188,-2.2617188,1.6718750,0.2157593,-0.4317627,-0.8686523,0.1113281,2.2070312,-6.8144531,-1.9687500
9383.8,4.5898438,-1.0468750,1.2343750,0.2050171,-0.4243164,-0.8735962,0.1215210,2.1328125,-6.6074219,-2.3281250
9389.0,4.7617188,-0.7812500,0.9843750,0.1937256,-0.4154053,-0.8789062,0.1317749,2.0039062,-6.4375000,-2.6816406
9394.8,4.7265625,-0.6835938,0.6953125,0.1834717,-0.4064331,-0.8839722,0.1406860,1.8085938,-6.2949219,-3.0253906
9400.2,4.5859375,-0.7070312,0.3945312,0.1721802,-0.3955688,-0.8896484,0.1497192,1.5996094,-6.1308594,-3.3613281
9404.0,4.2812500,-0.6523438,0.0468750,0.1623535,-0.3851318,-0.8947754,0.1571045,1.4335938,-5.8632812,-3.6796875
9409.0,4.2421875,-0.3554688,-0.2421875,0.1525269,-0.3734131,-0.9002075,0.1641235,1.3046875,-5.4375000,-3.9570312
9414.8,4.2539062,-0.1015625,-0.5039062,0.1444092,-0.3621216,-0.9050903,0.1697998,1.2128906,-4.8828125,-4.1523438
9420.2,4.3828125,0.0312500,-0.6640625,0.1366577,-0.3494263,-0.9102173,0.1752930,1.1132812,-4.3007812,-4.2558594
9478.0,12.0976562,0.5312500,-2.7656250,0.0430298,-0.2061768,-0.9509277,0.2267456,0.8593750,-0.4960938,-4.6230469
9499.2,12.9648438,0.6718750,-2.7265625,0.0471191,-0.1997070,-0.9520264,0.2270508,1.3750000,1.8007812,-5.6132812
9504.4,16.3046875,0.1875000,-3.6757812,0.0570068,-0.1864624,-0.9538574,0.2284546,1.4589844,2.6582031,-6.1445312
9509.2,15.4375000,-0.1367188,-3.6445312,0.0681763,-0.1726074,-0.9554443,0.2294922,1.4121094,2.7910156,-6.4707031
9514.4,13.8125000,-0.4023438,-3.8671875,0.0798950,-0.1579590,-0.9569092,0.2302246,1.3984375,3.0156250,-6.8535156
9520.2,12.0390625,-0.1835938,-4.3476562,0.0920410,-0.1428223,-0.9580688,0.2306519,1.3906250,3.2324219,-7.2714844
9523.8,10.4882812,0.2812500,-4.5390625,0.1045532,-0.1270752,-0.9589844,0.2308350,1.3730469,3.4277344,-7.7246094
9529.0,7.5312500,0.5898438,-4.5585938,0.1181030,-0.1097412,-0.9595947,0.2305908,1.2910156,3.5742188,-8.2207031
9534.4,6.0351562,0.3359375,-4.9062500,0.1333008,-0.0898438,-0.9598999,0.2297363,1.1933594,3.7636719,-8.7500000
9540.2,4.5664062,0.3203125,-5.6289062,0.1484985,-0.0696411,-0.9596558,0.2283325,1.0917969,4.0117188,-9.3144531
9543.8,2.7890625,0.0195312,-6.0898438,0.1632080,-0.0502319,-0.9589233,0.2265015,1.0468750,4.4218750,-9.9042969
9549.2,-0.7656250,-0.2773438,-5.7070312,0.1766968,0.0016479,-0.9572754,0.2289429,1.0234375,4.9472656,-10.4980469
9554.4,-2.4023438,-0.6132812,-5.5898438,0.1926880,0.0497437,-0.9524536,0.2305908,0.9843750,5.4414062,-11.0957031
9560.2,-3.8710938,-1.1210938,-5.5742188,0.2096558,0.0937500,-0.9452515,0.2318115,0.9296875,5.9023438,-11.6875000
9563.8,-5.0390625,-1.4804688,-5.6601562,0.2272949,0.1345825,-0.9360352,0.2326050,0.8378906,6.3496094,-12.2285156
9569.0,-6.5234375,-1.4375000,-5.6679688,0.2495728,0.1600342,-0.9271240,0.2293091,0.7363281,6.9003906,-12.7167969
9574.4,-7.2187500,-1.7343750,-5.5976562,0.2747803,0.1879883,-0.9156494,0.2252808,0.7500000,7.4941406,-13.1738281
9580.2,-7.8671875,-2.0546875,-5.6171875,0.2999268,0.2150269,-0.9027100,0.2211304,0.8183594,7.9628906,-13.5468750
9583.8,-8.6132812,-2.4843750,-5.5468750,0.3231812,0.2397461,-0.8893433,0.2172241,0.8964844,8.2968750,-13.8652344
9589.2,-9.7265625,-3.2812500,-5.0078125,0.3495483,0.2675781,-0.8723755,0.2125854,0.9765625,8.5898438,-14.1328125
9594.4,-11.0820312,-3.8750000,-4.2460938,0.3767700,0.2963867,-0.8527222,0.2075195,1.0566406,8.8398438,-14.3183594
9600.0,-11.9179688,-3.8320312,-3.9375000,0.4017334,0.3226318,-0.8327637,0.2026978,1.1171875,9.0390625,-14.4609375
9603.8,-12.6015625,-3.9960938,-4.0625000,0.4257202,0.3479004,-0.8115845,0.1976929,1.1425781,9.1621094,-14.5566406
9609.0,-14.4921875,-3.7578125,-3.8593750,0.4500122,0.3735962,-0.7880859,0.1921387,1.0898438,9.1914062,-14.5839844
9614.4,-16.0039062,-4.3867188,-3.7695312,0.4750977,0.4002075,-0.7613525,0.1856079,0.9843750,9.1601562,-14.5917969
9620.2,-17.6992188,-4.6718750,-3.7148438,0.4984131,0.4249878,-0.7342529,0.1786499,0.8242188,9.0781250,-14.5722656
9623.7,-19.2656250,-4.8281250,-3.5859375,0.5184937,0.4463501,-0.7088623,0.1716919,0.6171875,8.9492188,-14.5449219
9629.2,-22.8046875,-4.2617188,-3.3437500,0.5400391,0.4691772,-0.6794434,0.1630859,0.3906250,8.7890625,-14.4882812
9634.4,-24.6210938,-4.3515625,-3.2070312,0.5610962,0.4912720,-0.6483765,0.1531372,-0.0312500,8.5058594,-14.4726562
9639.0,-27.0976562,-3.5312500,-2.9687500,0.5797729,0.5104980,-0.6187744,0.1425781,-0.4804688,8.2617188,-14.4492188
9643.8,-29.0820312,-2.4726562,-3.1054688,0.5971680,0.5277100,-0.5896606,0.1312256,-0.9648438,8.0390625,-14.3925781
9649.2,-33.7382812,-0.0429688,-2.3203125,0.6145020,0.5438843,-0.5590820,0.1183472,-1.4394531,7.8105469,-14.2714844
9654.4,-35.3515625,1.1757812,-1.9335938,0.6324463,0.5595703,-0.5256348,0.1032104,-1.9628906,7.4921875,-14.0937500
9660.0,-36.6953125,2.7382812,-1.3203125,0.6480103,0.5719604,-0.4951172,0.0883789,-2.5058594,7.0625000,-13.8398438
9664.0,-37.3710938,3.7421875,-0.5859375,0.6622925,0.5820312,-0.4661255,0.0730591,-3.0605469,6.5683594,-13.4804688
9669.2,-38.7968750,3.1210938,1.3593750,0.6762695,0.5903931,-0.4369507,0.0563354,-3.6230469,6.0410156,-12.9609375
9674.4,-37.5781250,1.9687500,1.8085938,0.6907349,0.5969849,-0.4063110,0.0372925,-4.2792969,5.4355469,-12.2636719
9680.0,-35.5585938,1.1484375,2.1406250,0.7033081,0.6004639,-0.3800659,0.0195312,-4.9746094,4.7617188,-11.3320312
9683.8,-32.8554688,0.4023438,2.1210938,0.7150879,0.6010132,-0.3569336,0.0025024,-5.6894531,4.0585938,-10.1308594
9689.2,-26.3203125,-1.5117188,2.3046875,0.7271118,0.5985718,-0.3358154,-0.0143433,-6.4023438,3.3652344,-8.6191406
9694.4,-22.8515625,-2.8007812,2.2578125,0.7398071,0.5926514,-0.3169556,-0.0308228,-7.0781250,2.7148438,-6.8222656
9699.0,-19.8125000,-4.2343750,1.9804688,0.7520142,0.5839233,-0.3026733,-0.0441895,-7.6171875,2.2011719,-4.8339844
9704.0,-17.0781250,-5.6328125,1.7343750,0.7636108,0.5729980,-0.2926025,-0.0543213,-7.9726562,1.6601562,-2.7421875
9709.0,-12.8281250,-8.1953125,1.6093750,0.7755737,0.5592651,-0.2861938,-0.0618286,-8.1875000,0.9355469,-0.6523438
9714.4,-11.0351562,-9.3593750,1.5625000,0.7880249,0.5422363,-0.2838135,-0.0670166,-8.3417969,0.0839844,1.2988281
9719.2,-9.6132812,-10.3046875,1.5546875,0.7994995,0.5238037,-0.2856445,-0.0696411,-8.4843750,-0.8789062,2.9980469
9723.8,-8.4453125,-10.9804688,1.3867188,0.8092651,0.5056152,-0.2906494,-0.0703735,-8.6210938,-1.7675781,4.3964844
9729.0,-5.6601562,-11.2539062,1.4804688,0.8192139,0.4843750,-0.2990112,-0.0695190,-8.7050781,-2.3867188,5.5117188
9734.4,-4.7539062,-10.9296875,2.3085938,0.8292847,0.4599609,-0.3102417,-0.0670166,-8.7089844,-2.7226562,6.3789062
9739.2,-3.6367188,-10.7382812,3.2187500,0.8380737,0.4357910,-0.3220825,-0.0632324,-8.7226562,-2.8906250,7.0429688
9743.8,-2.2343750,-10.2421875,4.1367188,0.8454590,0.4132690,-0.3331909,-0.0587769,-8.7441406,-2.9257812,7.5683594
9749.0,1.0742188,-9.6445312,5.6757812,0.8527832,0.3881226,-0.3453979,-0.0529785,-8.8066406,-2.8886719,7.9492188
9754.4,1.9414062,-8.7187500,6.3242188,0.8601685,0.3599243,-0.3584595,-0.0457153,-8.8984375,-2.7031250,8.2480469
9759.0,2.2890625,-7.8710938,7.2148438,0.8665161,0.3328857,-0.3699951,-0.0382690,-9.0332031,-2.4804688,8.4746094
9764.0,3.1289062,-7.2304688,7.2500000,0.8720703,0.3064575,-0.3802490,-0.0307007,-9.1425781,-2.1992188,8.5996094
9769.0,4.7500000,-7.5312500,8.5078125,0.8774414,0.2784424,-0.3899536,-0.0225220,-9.2011719,-1.8886719,8.6093750
9774.2,5.4218750,-6.9960938,8.6484375,0.8825073,0.2483521,-0.3991699,-0.0135498,-9.1699219,-1.5488281,8.5117188
9779.2,5.9218750,-6.5703125,8.8320312,0.8867798,0.2193604,-0.4067383,-0.0050049,-9.0253906,-1.2304688,8.2324219
9783.8,6.2187500,-5.5976562,8.9023438,0.8900757,0.1939697,-0.4124756,0.0022583,-8.7734375,-0.9687500,7.7910156
9789.0,6.5625000,-4.6093750,8.5234375,0.8929443,0.1673584,-0.4177856,0.0093994,-8.5449219,-0.9667969,7.2539062
9794.2,6.5078125,-3.9414062,7.9531250,0.8949585,0.1392822,-0.4235229,0.0158691,-8.4882812,-1.4531250,6.6562500
9799.0,6.1445312,-3.4765625,7.3476562,0.8954468,0.1137085,-0.4299316,0.0202637,-8.5195312,-2.3730469,6.0273438
9803.8,5.5117188,-3.2304688,6.6328125,0.8942871,0.0900269,-0.4376831,0.0228271,-8.4804688,-3.4628906,5.3906250
9809.0,3.8164062,-3.3125000,5.3085938,0.8912964,0.0662842,-0.4478760,0.0239868,-8.3613281,-4.6699219,4.7871094
9814.2,2.9218750,-3.0976562,4.9257812,0.8859863,0.0419922,-0.4611816,0.0237427,-8.2128906,-5.9316406,4.2167969
9819.0,2.1523438,-2.8750000,4.5937500,0.8787842,0.0198364,-0.4763184,0.0222778,-8.1445312,-7.2832031,3.7050781
9823.8,1.4570312,-2.6835938,4.4492188,0.8696899,-0.0006104,-0.4932251,0.0198364,-8.1953125,-8.7402344,3.2656250
9829.2,0.8125000,-2.5859375,4.2968750,0.8577271,-0.0214844,-0.5134277,0.0163574,-8.2695312,-10.1875000,2.8984375
9834.2,0.6914062,-2.2773438,4.4375000,0.8417358,-0.0437012,-0.5380249,0.0118408,-8.3183594,-11.5000000,2.6328125
9839.0,0.7695312,-1.9960938,4.9062500,0.8244019,-0.0637817,-0.5623169,0.0073853,-8.3398438,-12.6660156,2.4941406
9843.8,1.0273438,-1.7890625,5.5859375,0.8050537,-0.0831299,-0.5873413,0.0029907,-8.3886719,-13.7187500,2.4531250
9849.0,1.4062500,-2.2343750,6.3750000,0.7822266,-0.1031494,-0.6144409,-0.0014648,-8.4570312,-14.6757812,2.5078125
9854.2,1.5585938,-2.4218750,7.0429688,0.7548218,-0.1246948,-0.6439209,-0.0058594,-8.5390625,-15.5097656,2.6484375
9859.2,1.6210938,-2.4960938,7.7187500,0.7255859,-0.1456299,-0.6724854,-0.0096436,-8.5917969,-16.1933594,2.8710938
9863.7,1.5703125,-2.5195312,8.2851562,0.6970825,-0.1646118,-0.6977539,-0.0123901,-8.5839844,-16.6953125,3.1562500
9869.2,1.8593750,-2.9335938,8.7148438,0.6640625,-0.1853027,-0.7241821,-0.0146484,-8.5214844,-17.0761719,3.4765625
9874.0,2.1289062,-3.1132812,9.2578125,0.6259766,-0.2077026,-0.7514648,-0.0160522,-8.3925781,-17.3183594,3.8027344
9879.2,2.5742188,-3.2187500,9.4804688,0.5880737,-0.2287598,-0.7755737,-0.0164795,-8.1660156,-17.4160156,4.0703125
9883.8,3.1601562,-3.3710938,9.4023438,0.5529175,-0.2472534,-0.7955322,-0.0159912,-7.8242188,-17.3945312,4.2695312
9889.0,4.1171875,-4.5625000,7.9609375,0.5140991,-0.2664185,-0.8151855,-0.0144043,-7.3535156,-17.2734375,4.3867188
9894.2,4.6718750,-5.2109375,7.5273438,0.4707031,-0.2863159,-0.8344727,-0.0114746,-6.7500000,-17.0078125,4.4296875
9899.2,5.0585938,-5.9062500,7.0585938,0.4310303,-0.3031616,-0.8498535,-0.0076904,-6.0664062,-16.6289062,4.3964844
9903.8,5.1914062,-6.3984375,6.4843750,0.3952637,-0.3171997,-0.8620605,-0.0031128,-5.3261719,-16.1972656,4.3085938
9908.8,4.9023438,-6.4062500,4.6679688,0.3576050,-0.3307495,-0.8733521,0.0029907,-4.5117188,-15.6367188,4.1484375
9914.2,5.1210938,-6.0195312,4.0976562,0.3174438,-0.3437500,-0.8836670,0.0109863,-3.6093750,-14.9687500,3.8964844
9919.0,5.5546875,-5.4804688,3.3828125,0.2833252,-0.3535767,-0.8912354,0.0193481,-2.6582031,-14.1308594,3.5312500
9923.8,6.1445312,-4.9257812,2.5195312,0.2526245,-0.3610840,-0.8972168,0.0284424,-1.6601562,-13.1835938,3.0468750
9929.0,6.8437500,-4.3984375,0.6093750,0.2236328,-0.3668213,-0.9021606,0.0388184,-0.6718750,-12.1328125,2.4824219
9934.2,7.3398438,-4.4218750,-0.0625000,0.1954346,-0.3707275,-0.9064941,0.0510254,0.2890625,-11.0234375,1.8476562
9939.0,7.9101562,-4.2968750,-0.6562500,0.1729736,-0.3722534,-0.9097290,0.0628052,1.1308594,-9.8867188,1.2050781
9943.8,8.7343750,-4.0546875,-0.9648438,0.1542358,-0.3720093,-0.9122925,0.0745850,1.8164062,-8.7929688,0.5488281
9949.2,9.9609375,-3.5312500,-1.3046875,0.1376953,-0.3700562,-0.9146118,0.0869141,2.2792969,-7.8398438,-0.1015625
9954.2,10.2578125,-3.4531250,-1.9179688,0.1225586,-0.3663330,-0.9169922,0.0997925,2.5605469,-7.0371094,-0.7519531
10056.0,7.0859375,0.9023438,-4.3515625,0.0529785,0.2173462,0.9514771,-0.2113647,0.2148438,-2.1816406,-4.3339844
10079.4,16.0312500,1.5000000,-3.2578125,0.0459595,0.1889648,0.9556885,-0.2209473,2.3007812,1.0292969,-4.3339844
10084.2,15.8828125,1.5781250,-2.8242188,0.0368042,0.1794434,0.9568481,-0.2255859,2.4570312,1.9121094,-4.4511719
10089.0,15.0390625,1.5390625,-1.5195312,0.0257568,0.1688843,0.9579468,-0.2304688,2.1933594,2.1035156,-4.5781250
10094.0,14.6328125,2.0546875,-1.3046875,0.0149536,0.1586914,0.9590454,-0.2342529,1.9902344,2.3925781,-4.7773438
10098.8,14.0000000,2.6914062,-1.2148438,0.0038452,0.1484985,0.9600220,-0.2373657,1.8261719,2.7578125,-5.0820312
10104.2,13.2187500,3.5703125,-1.3554688,0.0093384,-0.1364746,-0.9609985,0.2402344,1.6835938,3.1914062,-5.4707031
10108.8,9.2695312,1.1914062,-0.3046875,0.0227051,-0.1245728,-0.9619141,0.2422485,1.4589844,3.6171875,-5.9570312
10114.2,7.3085938,0.5234375,0.4062500,0.0368042,-0.1119995,-0.9627686,0.2433472,1.1601562,4.0507812,-6.5058594
10118.8,5.5117188,0.2421875,0.6640625,0.0529785,-0.0975952,-0.9635010,0.2435303,0.8710938,4.5488281,-7.0976562
10124.2,3.6406250,0.1796875,0.5351562,0.0709229,-0.0817261,-0.9640503,0.2426758,0.5761719,5.0937500,-7.7539062
10129.0,0.9726562,0.7304688,0.2929688,0.0903320,-0.0646973,-0.9641724,0.2407837,0.3613281,5.6972656,-8.4472656
10134.0,-0.1562500,1.0976562,0.0585938,0.1093750,-0.0482178,-0.9638062,0.2382812,0.2226562,6.2500000,-9.1660156
10138.8,-1.0234375,1.4765625,-0.2226562,0.1320801,-0.0281372,-0.9626465,0.2348022,0.1210938,6.5917969,-9.8750000
10144.2,-1.7656250,1.8398438,-0.4921875,0.1558228,-0.0065308,-0.9604492,0.2306519,0.1191406,6.8945312,-10.5273438
10149.2,-2.7500000,2.6367188,-0.3281250,0.1803589,0.0160522,-0.9570923,0.2261963,0.2421875,7.3789062,-11.0507812
10154.2,-3.3437500,2.7773438,-0.2421875,0.2055054,0.0389404,-0.9523926,0.2218018,0.4570312,7.8632812,-11.4726562
10159.0,-3.7734375,2.9570312,-0.3789062,0.2294922,0.0607910,-0.9466553,0.2178345,0.7050781,8.2128906,-11.8105469
10164.2,-4.3046875,3.2148438,-0.6953125,0.2583008,0.0872803,-0.9381714,0.2134399,0.9765625,8.4101562,-12.0585938
10169.0,-4.7304688,3.8945312,-1.3984375,0.2843628,0.1116943,-0.9288330,0.2095947,1.2304688,8.5136719,-12.2050781
10174.0,-5.3320312,3.6640625,-1.9140625,0.3105469,0.1365967,-0.9179077,0.2059326,1.4882812,8.5820312,-12.2714844
10179.0,-6.1210938,3.2304688,-2.3867188,0.3351440,0.1605225,-0.9060059,0.2026978,1.7226562,8.6074219,-12.2675781
10184.2,-6.9414062,2.6796875,-2.8828125,0.3619995,0.1871948,-0.8911743,0.1992798,1.8886719,8.5449219,-12.2128906
10189.2,-8.3281250,2.2968750,-3.8007812,0.3859863,0.2114868,-0.8762817,0.1960449,1.9648438,8.4550781,-12.0957031
10194.2,-9.2109375,2.0156250,-4.1796875,0.4083862,0.2345581,-0.8608398,0.1928711,1.9667969,8.3769531,-11.9570312
10198.8,-10.1406250,1.8085938,-4.4687500,0.4313354,0.2584839,-0.8433838,0.1892090,1.8886719,8.2929688,-11.8183594
10204.0,-11.1289062,1.4531250,-4.6367188,0.4539185,0.2820435,-0.8247070,0.1850586,1.7324219,8.1777344,-11.6875000
10209.2,-13.3125000,0.9492188,-4.3359375,0.4750366,0.3041992,-0.8057861,0.1804810,1.5097656,8.0605469,-11.5507812
10214.2,-14.4726562,0.2929688,-4.0625000,0.4959106,0.3259277,-0.7856445,0.1751099,1.2441406,8.0058594,-11.4511719
10219.0,-15.6757812,-0.4765625,-3.5351562,0.5141602,0.3445435,-0.7669067,0.1696167,0.9335938,8.0019531,-11.3906250
10224.0,-17.0234375,-1.0781250,-2.9843750,0.5347900,0.3649902,-0.7445679,0.1625366,0.5976562,8.0468750,-11.3554688
10229.2,-20.0195312,-1.2382812,-1.9960938,0.5540161,0.3833618,-0.7225342,0.1550293,0.2109375,8.1093750,-11.3359375
10234.2,-21.1328125,0.0703125,-2.0390625,0.5721436,0.3998413,-0.7008057,0.1470337,-0.2167969,8.1308594,-11.3046875
10238.8,-21.9843750,0.8828125,-1.9570312,0.5911255,0.4161377,-0.6770630,0.1376953,-0.6992188,8.1347656,-11.2558594
10244.0,-23.2031250,1.8203125,-1.8437500,0.6101685,0.4312744,-0.6523438,0.1271973,-1.2109375,8.0644531,-11.1777344
10249.2,-25.5742188,3.8984375,-0.9726562,0.6280518,0.4445190,-0.6280518,0.1160889,-1.7265625,7.9433594,-11.0625000
10254.2,-26.6171875,4.4218750,-0.5976562,0.6460571,0.4566040,-0.6027832,0.1038208,-2.2089844,7.7773438,-10.8710938
10259.0,-27.6875000,4.3398438,0.1992188,0.6616211,0.4659424,-0.5802612,0.0921631,-2.6796875,7.5449219,-10.6328125
10264.2,-28.4023438,3.8984375,0.8476562,0.6791992,0.4751587,-0.5539551,0.0776978,-3.1992188,7.1718750,-10.3242188
10269.2,-28.7578125,2.3320312,1.9648438,0.6945190,0.4818726,-0.5304565,0.0634766,-3.8222656,6.5429688,-9.9726562
10274.0,-28.2500000,1.2851562,2.3320312,0.7089233,0.4864502,-0.5083618,0.0483398,-4.4902344,5.7949219,-9.4785156
10279.0,-27.0742188,0.3046875,2.8281250,0.7219849,0.4887085,-0.4887085,0.0329590,-5.2070312,5.0136719,-8.8125000
10284.0,-25.5820312,-0.1484375,3.3164062,0.7354736,0.4884644,-0.4692383,0.0156250,-5.9375000,4.2285156,-7.9609375
10289.2,-22.3593750,-1.0585938,4.1132812,0.7476807,0.4854736,-0.4530029,-0.0009766,-6.6113281,3.3847656,-6.9042969
10294.2,-20.4765625,-2.0898438,4.3125000,0.7595825,0.4795532,-0.4390259,-0.0177002,-7.2519531,2.5234375,-5.6875000
10298.8,-18.7343750,-3.0234375,4.4335938,0.7697144,0.4715576,-0.4290771,-0.0319214,-7.8320312,1.7265625,-4.3242188
10304.0,-17.2343750,-3.8789062,4.3007812,0.7808838,0.4594116,-0.4206543,-0.0469971,-8.2382812,0.9785156,-2.8906250
10309.2,-15.7226562,-4.3945312,4.1484375,0.7907715,0.4454956,-0.4155273,-0.0594482,-8.4804688,0.2734375,-1.4355469
10314.2,-13.1289062,-5.1367188,4.2148438,0.7996216,0.4302368,-0.4131470,-0.0695190,-8.5820312,-0.2890625,-0.0273438
10318.7,-11.8476562,-5.5390625,4.2070312,0.8084106,0.4122314,-0.4129028,-0.0780029,-8.5820312,-0.7265625,1.2656250
10324.2,-10.5078125,-5.8476562,4.4296875,0.8164062,0.3931885,-0.4144897,-0.0842285,-8.4941406,-1.1523438,2.3691406
10329.2,-9.4062500,-5.8984375,4.8085938,0.8240967,0.3718262,-0.4179688,-0.0888672,-8.3027344,-1.5039062,3.2695312
10333.2,-6.9687500,-5.1796875,5.8945312,0.8303833,0.3518677,-0.4222412,-0.0914917,-8.0253906,-1.7832031,4.0000000
10338.8,-6.0820312,-4.7773438,6.5703125,0.8362427,0.3303833,-0.4277344,-0.0927734,-7.6992188,-1.9902344,4.5625000
10344.2,-4.8906250,-4.3554688,7.2578125,0.8411865,0.3092651,-0.4337769,-0.0927124,-7.4199219,-2.1875000,5.0117188
10349.2,-3.3085938,-3.7187500,7.6914062,0.8457031,0.2864380,-0.4408569,-0.0915527,-7.2031250,-2.3730469,5.3769531
10353.2,-0.6953125,-4.0234375,8.8398438,0.8489990,0.2666016,-0.4472046,-0.0897827,-7.0195312,-2.4687500,5.6933594
10358.8,0.0976562,-4.1640625,9.5625000,0.8525391,0.2445068,-0.4536133,-0.0873413,-6.8964844,-2.4843750,5.9355469
10364.2,1.1757812,-4.1796875,9.8242188,0.8556519,0.2214966,-0.4600830,-0.0841064,-6.8867188,-2.4316406,6.1210938
10369.2,1.9843750,-3.9101562,10.0625000,0.8582764,0.2001343,-0.4656372,-0.0806885,-6.9062500,-2.3027344,6.2812500
10373.2,3.8593750,-3.6679688,9.8085938,0.8605347,0.1788940,-0.4707031,-0.0769043,-6.9492188,-2.1796875,6.4433594
10378.7,3.7812500,-3.2812500,9.9101562,0.8625488,0.1563721,-0.4757690,-0.0724487,-6.9492188,-2.1445312,6.5371094
10384.0,4.0234375,-3.8164062,9.5820312,0.8640137,0.1339111,-0.4805298,-0.0678711,-6.8984375,-2.1640625,6.4980469
10389.2,4.1171875,-3.7500000,9.0937500,0.8649292,0.1099854,-0.4855957,-0.0629272,-6.7363281,-2.2656250,6.3593750
10393.2,3.6328125,-2.9804688,7.9960938,0.8650513,0.0891113,-0.4902344,-0.0586548,-6.5234375,-2.5781250,6.1074219
10398.7,3.4765625,-2.2109375,7.1445312,0.8640747,0.0676270,-0.4958496,-0.0544434,-6.2500000,-3.0585938,5.7539062
10404.2,3.4101562,-1.4921875,6.5859375,0.8618164,0.0475464,-0.5023804,-0.0509033,-6.0488281,-3.8066406,5.3632812
10409.4,3.1835938,-1.0546875,6.1484375,0.8577881,0.0267944,-0.5110474,-0.0477295,-5.8320312,-4.7089844,4.9511719
10413.0,2.7187500,-1.3671875,5.4179688,0.8527832,0.0097046,-0.5201416,-0.0456543,-5.6718750,-5.7402344,4.5332031
10418.7,2.3164062,-1.6171875,5.0664062,0.8452759,-0.0085449,-0.5324707,-0.0440063,-5.5371094,-6.9179688,4.0859375
10424.2,1.9023438,-1.9882812,4.8281250,0.8358765,-0.0255127,-0.5465698,-0.0430908,-5.3613281,-8.0097656,3.6406250
10429.4,1.5117188,-2.2812500,4.6171875,0.8233032,-0.0433960,-0.5643311,-0.0427246,-5.3222656,-9.2089844,3.2402344
10433.0,1.1562500,-2.6562500,4.3359375,0.8104858,-0.0581665,-0.5812378,-0.0430298,-5.4199219,-10.4687500,2.9316406
10438.7,0.7343750,-2.4609375,4.4687500,0.7937012,-0.0745850,-0.6021118,-0.0437622,-5.6035156,-11.7011719,2.7363281
10444.0,0.3476562,-2.1171875,4.8437500,0.7746582,-0.0908813,-0.6242065,-0.0447388,-5.7910156,-12.8339844,2.6718750
10449.2,-0.0039062,-1.6406250,5.1914062,0.7513428,-0.1087036,-0.6492920,-0.0458374,-5.9628906,-13.8593750,2.7070312
10453.2,-0.4179688,-1.1132812,5.5976562,0.7279053,-0.1250000,-0.6726074,-0.0465698,-6.0800781,-14.8007812,2.8046875
10458.7,-0.7109375,-1.1718750,5.9492188,0.7002563,-0.1426392,-0.6979370,-0.0469360,-6.1484375,-15.6406250,2.9316406
10464.4,-1.0039062,-1.5273438,6.1406250,0.6707153,-0.1599731,-0.7227783,-0.0466919,-6.1113281,-16.3417969,3.0664062
10469.2,-1.3867188,-2.0429688,6.4179688,0.6364746,-0.1784058,-0.7489624,-0.0457764,-6.0097656,-16.8652344,3.1953125
10473.0,-1.5390625,-2.7148438,5.8750000,0.6052856,-0.1940918,-0.7707520,-0.0443115,-5.8574219,-17.1796875,3.3105469
10478.5,-1.1093750,-2.8828125,5.7421875,0.5690308,-0.2110596,-0.7936401,-0.0419312,-5.6835938,-17.3750000,3.4433594
10484.2,-0.6250000,-3.0781250,5.4453125,0.5323486,-0.2272339,-0.8145142,-0.0388794,-5.4824219,-17.4746094,3.5937500
10489.2,-0.0625000,-3.3320312,5.3203125,0.4916992,-0.2441406,-0.8350830,-0.0347290,-5.2343750,-17.4941406,3.7851562
10493.4,0.9570312,-3.8085938,4.3710938,0.4545288,-0.2588501,-0.8517456,-0.0301514,-4.9160156,-17.4414062,3.9589844
10498.7,1.7929688,-3.9296875,4.2304688,0.4145508,-0.2738647,-0.8674927,-0.0243530,-4.5117188,-17.2617188,4.1093750
10504.4,2.8750000,-3.9843750,3.9296875,0.3755493,-0.2877808,-0.8807983,-0.0177002,-4.0175781,-16.9296875,4.2265625
10509.2,4.0039062,-3.8007812,3.4726562,0.3348999,-0.3015747,-0.8926392,-0.0096436,-3.5039062,-16.4824219,4.2773438
10513.4,6.0937500,-3.4062500,1.6484375,0.2987061,-0.3132324,-0.9014893,-0.0015259,-2.9609375,-15.9140625,4.2636719
10518.5,7.1640625,-3.3437500,0.8750000,0.2623291,-0.3243408,-0.9088135,0.0076294,-2.3750000,-15.1367188,4.1484375
10523.2,8.1523438,-3.3750000,0.2851562,0.2282104,-0.3341675,-0.9143066,0.0173340,-1.7480469,-14.1718750,3.9335938
10529.2,9.1171875,-3.5585938,-0.3437500,0.1942749,-0.3432007,-0.9185181,0.0281982,-1.1035156,-13.0781250,3.6132812
10533.4,10.1210938,-4.5312500,-1.3750000,0.1667480,-0.3499146,-0.9210205,0.0382080,-0.4960938,-11.8945312,3.2070312
10592.0,3.1914062,-0.9375000,-0.7929688,0.0912476,0.3669434,0.9140625,-0.1468506,2.1757812,-3.6074219,-2.7089844
10614.0,6.5820312,-0.6796875,-0.3242188,0.0855103,0.3601074,0.9170532,-0.1483765,0.4726562,-1.6953125,-4.7773438
10619.2,4.0507812,3.1757812,-2.3398438,0.0847778,0.3474731,0.9215088,-0.1511230,-0.1054688,-1.0214844,-5.3085938
10624.2,4.8867188,3.0195312,-3.0156250,0.0834351,0.3345337,0.9261475,-0.1528931,-0.0585938,-0.8925781,-5.1601562
10628.8,5.8125000,2.7109375,-3.5820312,0.0817261,0.3232422,0.9300537,-0.1543579,0.0292969,-0.6582031,-5.0117188
10633.4,7.9414062,2.0625000,-4.4687500,0.0794067,0.3110962,0.9341431,-0.1560059,0.2246094,-0.3554688,-4.8339844
10639.2,9.1640625,1.8281250,-4.7460938,0.0761719,0.2993774,0.9378662,-0.1579590,0.5351562,0.0234375,-4.6113281
10644.2,10.2421875,1.8554688,-5.0195312,0.0719604,0.2886963,0.9411621,-0.1602173,0.8945312,0.4003906,-4.3671875
10648.7,11.3046875,1.8906250,-4.9960938,0.0671997,0.2796631,0.9437866,-0.1627197,1.2285156,0.7402344,-4.1289062
10653.2,13.6093750,2.1328125,-5.1562500,0.0614014,0.2706299,0.9462891,-0.1658936,1.5058594,1.0371094,-3.9394531
10659.2,14.6054688,2.2773438,-5.0742188,0.0542603,0.2612305,0.9486694,-0.1696777,1.7031250,1.2949219,-3.8046875
10664.0,15.2812500,2.1093750,-5.0078125,0.0471802,0.2529907,0.9506836,-0.1732178,1.7949219,1.5390625,-3.7558594
10668.7,15.8125000,1.7343750,-4.9804688,0.0397949,0.2451172,0.9524536,-0.1765137,1.7500000,1.7285156,-3.7988281
10673.2,16.4843750,0.6523438,-4.6132812,0.0318604,0.2368164,0.9542847,-0.1795654,1.5527344,1.9062500,-3.9101562
10679.0,16.4804688,0.1796875,-4.4101562,0.0230713,0.2276001,0.9562988,-0.1820679,1.2871094,2.1093750,-4.0839844
10684.0,16.2070312,-0.2929688,-4.1562500,0.0142212,0.2184448,0.9583130,-0.1835327,0.9394531,2.3437500,-4.3164062
10688.8,15.5039062,-0.7148438,-3.9648438,0.0052490,0.2091675,0.9603882,-0.1839600,0.5976562,2.7070312,-4.6328125
10693.2,12.8203125,-1.9414062,-3.6679688,0.0050659,-0.1987915,-0.9627075,0.1834106,0.2890625,3.2128906,-5.0390625
10699.2,10.9609375,-2.7109375,-3.5000000,0.0174561,-0.1868286,-0.9652710,0.1817017,0.0000000,3.8164062,-5.5625000
10704.4,9.0078125,-3.3398438,-3.4804688,0.0311890,-0.1740723,-0.9678345,0.1789551,-0.2460938,4.5351562,-6.2128906
10709.2,6.9023438,-4.0976562,-3.6679688,0.0455322,-0.1613770,-0.9700928,0.1755981,-0.4042969,5.4062500,-6.9707031
10714.0,2.6328125,-5.1015625,-4.4179688,0.0666504,-0.1444092,-0.9724731,0.1703491,-0.4902344,6.4042969,-7.8457031
10719.2,0.6601562,-5.6757812,-4.3789062,0.0897217,-0.1261597,-0.9741821,0.1644897,-0.4882812,7.4882812,-8.8378906
10724.2,-1.3242188,-6.0429688,-4.3984375,0.1145020,-0.1066895,-0.9749146,0.1582031,-0.4218750,8.5703125,-9.8652344
10729.2,-3.0664062,-5.9921875,-4.3867188,0.1411743,-0.0856323,-0.9745483,0.1516113,-0.2890625,9.5371094,-10.8769531
10734.0,-5.7304688,-5.4687500,-4.0273438,0.1727905,-0.0601196,-0.9725342,0.1440430,-0.0781250,10.4238281,-11.8574219
10739.0,-7.4843750,-5.6796875,-3.9960938,0.2048950,-0.0337524,-0.9686279,0.1366577,0.2265625,11.2597656,-12.7890625
10744.4,-9.4023438,-5.7460938,-4.2109375,0.2388306,-0.0050659,-0.9624023,0.1292114,0.5937500,11.9863281,-13.6406250
10748.7,-11.4609375,-5.3906250,-4.5507812,0.2725830,0.0242920,-0.9540405,0.1221924,1.0097656,12.5585938,-14.4062500
10753.2,-15.0117188,-4.0078125,-4.7968750,0.3079224,0.0563354,-0.9427490,0.1151733,1.4394531,12.9609375,-15.0898438
10759.2,-16.5273438,-3.3437500,-5.0390625,0.3460083,0.0925903,-0.9273682,0.1079102,1.8789062,13.2089844,-15.6679688
10764.4,-18.2265625,-3.0117188,-5.0156250,0.3805542,0.1273193,-0.9103394,0.1014404,2.2910156,13.3203125,-16.1679688
10769.2,-19.5781250,-2.4062500,-5.0546875,0.4130859,0.1619263,-0.8911133,0.0952759,2.6289062,13.3125000,-16.6074219
10774.0,-24.0429688,-1.0390625,-2.4648438,0.4472046,0.2006226,-0.8671265,0.0885010,2.9121094,13.2695312,-16.9316406
10778.2,-24.9375000,-0.2304688,-2.9062500,0.4768677,0.2362671,-0.8426514,0.0821533,3.1347656,13.2050781,-17.1503906
10784.4,-26.2265625,1.3476562,-2.6171875,0.5079346,0.2760010,-0.8125610,0.0748291,3.1816406,12.9316406,-17.2734375
10789.0,-27.1210938,3.7734375,-2.3671875,0.5325317,0.3095093,-0.7848511,0.0677490,2.9648438,12.3847656,-17.2675781
10794.2,-28.8828125,7.4570312,-1.4414062,0.5586548,0.3474121,-0.7509155,0.0581055,2.4980469,11.6679688,-17.1289062
10799.2,-29.9960938,6.7421875,-0.6171875,0.5802002,0.3805542,-0.7185059,0.0476074,1.9023438,10.8984375,-16.7968750
10804.4,-30.9101562,5.5585938,0.0742188,0.5993652,0.4111328,-0.6859131,0.0357666,1.2871094,10.1289062,-16.2734375
10808.5,-31.7773438,5.1132812,0.8359375,0.6149292,0.4365845,-0.6562500,0.0239258,0.6992188,9.3457031,-15.6074219
10813.2,-32.3632812,4.7109375,1.8164062,0.6295776,0.4609985,-0.6253052,0.0099487,-0.2187500,8.1503906,-14.8007812
10819.0,-31.6953125,4.9570312,2.3945312,0.6432495,0.4834595,-0.5936890,-0.0066528,-1.1445312,6.9335938,-13.8066406
10824.4,-30.6718750,4.3164062,2.7187500,0.6542969,0.5004272,-0.5664673,-0.0233154,-2.0957031,5.7363281,-12.5859375
10828.7,-29.3984375,3.9687500,2.6601562,0.6635742,0.5127563,-0.5432739,-0.0396729,-2.9667969,4.6269531,-11.1542969
10833.2,-27.5429688,4.1250000,2.3906250,0.6723022,0.5215454,-0.5222778,-0.0566406,-3.7929688,3.5000000,-9.5703125
10839.0,-22.9179688,3.6367188,2.5859375,0.6808472,0.5266724,-0.5035400,-0.0742798,-4.5019531,2.5136719,-7.9042969
10844.4,-20.4765625,2.7226562,2.5585938,0.6884155,0.5278320,-0.4891968,-0.0902710,-5.1171875,1.4765625,-6.1894531
10848.7,-18.2187500,1.7187500,2.5507812,0.6953125,0.5254517,-0.4790649,-0.1046143,-5.6855469,0.5078125,-4.4609375
10853.2,-16.0742188,0.5039062,2.4257812,0.7022705,0.5197144,-0.4719849,-0.1181030,-6.0917969,-0.2246094,-2.7246094
10859.2,-12.3007812,-2.0898438,2.6015625,0.7097168,0.5102539,-0.4677734,-0.1306763,-6.2949219,-0.8476562,-0.9960938
10864.4,-10.7851562,-3.3984375,2.3437500,0.7165527,0.4989624,-0.4667969,-0.1403198,-6.3593750,-1.3886719,0.5996094
10869.0,-9.7539062,-4.4414062,2.1132812,0.7225952,0.4865723,-0.4683228,-0.1474609,-6.3828125,-1.9023438,1.9335938
10874.2,-8.2304688,-6.4062500,1.7109375,0.7293091,0.4704590,-0.4724121,-0.1538086,-6.3515625,-2.2773438,3.0058594
10893.2,-7.7773438,-6.8359375,1.4687500,0.7353516,0.4540405,-0.4776001,-0.1582031,-6.2539062,-2.3867188,3.8281250
10906.0,-6.5898438,-4.7656250,2.3398438,0.7698975,0.3391113,-0.5146484,-0.1654663,-5.3867188,-0.9804688,5.1074219
10914.2,-5.6054688,-2.1679688,5.2187500,0.7727661,0.3316650,-0.5155029,-0.1646729,-4.9121094,-0.0859375,4.9179688
10919.2,-5.5898438,-1.3281250,5.6601562,0.7791138,0.3158569,-0.5167847,-0.1617432,-4.7304688,0.2089844,4.7500000
10924.4,-5.4648438,-0.5898438,6.0859375,0.7849731,0.3011475,-0.5175171,-0.1589966,-4.7578125,0.1875000,4.6601562
10929.2,-5.1406250,0.1289062,6.9804688,0.7908936,0.2856445,-0.5181274,-0.1562500,-4.8437500,0.1250000,4.5683594
10934.4,-3.6132812,0.6093750,7.9218750,0.7964478,0.2702637,-0.5186157,-0.1538696,-4.9804688,0.0976562,4.4492188
10937.8,-2.6835938,0.0039062,7.9960938,0.8013916,0.2559814,-0.5187988,-0.1521606,-5.1757812,0.0429688,4.3437500
10944.4,-2.0390625,-1.0312500,8.1679688,0.8068848,0.2385254,-0.5189819,-0.1505737,-5.4746094,-0.0917969,4.2714844
10949.0,-1.2968750,-2.4101562,8.6171875,0.8116455,0.2218628,-0.5192871,-0.1496582,-5.8886719,-0.3769531,4.2812500
10954.2,-0.0156250,-4.5820312,8.9453125,0.8159180,0.2036133,-0.5200806,-0.1494751,-6.3906250,-0.9296875,4.3691406
10957.8,0.5078125,-5.2851562,8.5468750,0.8191528,0.1848145,-0.5218506,-0.1499634,-6.9667969,-1.7500000,4.5136719
10964.4,0.8281250,-5.3437500,8.0781250,0.8214111,0.1621704,-0.5254517,-0.1513062,-7.5917969,-2.8300781,4.7011719
10969.2,1.0742188,-5.0000000,7.3554688,0.8218384,0.1380005,-0.5310669,-0.1533813,-8.1894531,-4.1582031,4.9433594
10974.2,1.2265625,-4.1132812,5.4570312,0.8201294,0.1121216,-0.5390015,-0.1559448,-8.6738281,-5.6660156,5.2109375
10977.7,1.1796875,-3.6171875,4.4960938,0.8162231,0.0868530,-0.5486450,-0.1585693,-8.9003906,-7.2558594,5.4335938
10983.0,1.0312500,-3.2421875,3.7304688,0.8092651,0.0584717,-0.5618286,-0.1613159,-8.8417969,-8.8457031,5.5566406
10989.0,0.8007812,-2.9921875,3.1914062,0.7982178,0.0270996,-0.5789795,-0.1638794,-8.5820312,-10.3964844,5.5800781
10994.2,0.6757812,-2.7851562,2.8320312,0.7926636,0.0129395,-0.5920410,-0.1448364,-8.2265625,-11.9257812,5.5390625
10997.7,0.8789062,-2.9296875,2.2460938,0.7830811,-0.0013428,-0.6083374,-0.1290894,-7.7695312,-13.2890625,5.4277344
11003.2,0.8632812,-2.9023438,2.2851562,0.7635498,-0.0283203,-0.6318970,-0.1300049,-7.3066406,-14.4667969,5.3300781
11009.2,0.8515625,-2.8789062,2.5078125,0.7389526,-0.0570068,-0.6586304,-0.1299438,-6.9121094,-15.4453125,5.2832031
11014.4,0.8828125,-2.7929688,2.8046875,0.7131958,-0.0831909,-0.6839600,-0.1290283,-6.6054688,-16.2500000,5.3164062
11017.5,1.2929688,-2.9921875,2.8554688,0.6873779,-0.1068115,-0.7070312,-0.1271973,-6.3046875,-16.8144531,5.3847656
11023.2,1.3945312,-3.1953125,3.2421875,0.6574097,-0.1319580,-0.7314453,-0.1242065,-6.0605469,-17.1953125,5.5175781
11029.2,1.4296875,-3.2773438,3.8281250,0.6220093,-0.1594238,-0.7572021,-0.1196899,-5.8476562,-17.4921875,5.6835938
11034.4,1.4023438,-3.3515625,4.1679688,0.5877686,-0.1843262,-0.7794189,-0.1145020,-5.6757812,-17.7421875,5.8828125
11037.5,1.2968750,-3.7460938,3.6328125,0.5564575,-0.2066040,-0.7973633,-0.1090088,-5.4980469,-17.9375000,6.0878906
11043.0,1.3671875,-4.0117188,3.5781250,0.5210571,-0.2304688,-0.8154297,-0.1021118,-5.2929688,-18.0566406,6.2558594
11049.0,1.5742188,-4.3085938,3.4960938,0.4810791,-0.2558594,-0.8333130,-0.0934448,-5.0546875,-18.1328125,6.3691406
11054.2,1.8906250,-4.6679688,3.3750000,0.4428101,-0.2787476,-0.8480225,-0.0843506,-4.7656250,-18.1777344,6.4472656
11057.7,2.8632812,-5.0976562,2.5195312,0.4057617,-0.2996216,-0.8602295,-0.0747681,-4.3652344,-18.0859375,6.4316406
11063.2,3.6640625,-5.3593750,2.1562500,0.3670654,-0.3200684,-0.8710327,-0.0638428,-3.8632812,-17.7636719,6.3222656
11069.2,4.5000000,-5.5898438,1.8671875,0.3253174,-0.3405762,-0.8806763,-0.0510254,-3.3125000,-17.2832031,6.1484375
11074.4,5.2304688,-5.8125000,1.6406250,0.2874756,-0.3579102,-0.8875732,-0.0382690,-2.7265625,-16.6679688,5.9199219
11077.7,6.2460938,-6.4531250,0.9492188,0.2543945,-0.3721924,-0.8922119,-0.0260620,-2.0917969,-15.8730469,5.6406250
11083.0,6.9687500,-6.5820312,0.6054688,0.2204590,-0.3858643,-0.8957520,-0.0122681,-1.4199219,-14.9648438,5.3066406
11089.2,7.9335938,-6.6171875,0.0859375,0.1855469,-0.3989868,-0.8980103,0.0034790,-0.7128906,-13.9296875,4.9082031
11093.4,8.7460938,-6.7851562,-0.4960938,0.1563721,-0.4091797,-0.8988037,0.0181885,-0.0195312,-12.8613281,4.4765625
11198.0,4.0312500,0.8398438,-3.0156250,0.1660156,0.4045410,0.8696289,-0.2290649,0.0273438,-1.8437500,-4.0175781
11218.0,4.0078125,0.8710938,-3.0234375,0.1571045,0.3989868,0.8734131,-0.2307129,0.4277344,-0.1542969,-3.4726562
11223.2,14.2734375,-0.8515625,-5.9726562,0.1472168,0.3900757,0.8784790,-0.2333374,0.5839844,0.4531250,-3.2285156
11229.2,15.0429688,-1.2148438,-6.2929688,0.1381836,0.3823242,0.8828125,-0.2353516,0.5507812,0.5371094,-3.2207031
11232.8,15.7382812,-1.5585938,-6.6484375,0.1301880,0.3753052,0.8865967,-0.2368774,0.4863281,0.6660156,-3.2617188
11238.2,16.7500000,-2.3398438,-7.3750000,0.1222534,0.3677979,0.8905029,-0.2382202,0.3964844,0.8378906,-3.3808594
11243.2,17.2031250,-2.6484375,-7.9101562,0.1140137,0.3594360,0.8947144,-0.2391968,0.3183594,1.0722656,-3.5703125
11249.2,17.6210938,-2.9375000,-8.4414062,0.1057739,0.3511963,0.8989258,-0.2397461,0.2304688,1.3339844,-3.8300781
11252.7,17.8671875,-3.4492188,-8.7734375,0.0977173,0.3432617,0.9028320,-0.2398071,0.1523438,1.6425781,-4.1406250
11258.2,17.1210938,-4.5468750,-9.4960938,0.0886841,0.3341064,0.9072876,-0.2394409,0.0664062,1.9433594,-4.5273438
11263.2,16.3007812,-4.5507812,-9.7460938,0.0781860,0.3231812,0.9124146,-0.2385864,-0.0175781,2.2480469,-4.9804688
11269.0,15.4882812,-4.4179688,-10.0937500,0.0677490,0.3123779,0.9172974,-0.2374268,-0.0800781,2.5917969,-5.4921875
11272.8,14.3281250,-4.2617188,-10.4609375,0.0566406,0.3009033,0.9223022,-0.2358398,-0.1640625,2.9707031,-6.0625000
11278.2,10.3750000,-4.7656250,-9.7187500,0.0441284,0.2876587,0.9277344,-0.2336426,-0.2812500,3.4042969,-6.7304688
11283.2,7.7226562,-5.3359375,-8.8710938,0.0292358,0.2717896,0.9338379,-0.2305908,-0.3925781,3.9316406,-7.4882812
11289.2,4.7851562,-5.8437500,-7.8554688,0.0134888,0.2553101,0.9397583,-0.2269897,-0.4746094,4.6347656,-8.3515625
11292.7,1.6914062,-6.0585938,-7.0664062,0.0031128,-0.2385864,-0.9451904,0.2229614,-0.5000000,5.5605469,-9.3183594
11298.2,-3.3085938,-5.8007812,-5.6445312,0.0236816,-0.2185059,-0.9509277,0.2177124,-0.6015625,6.5722656,-10.3750000
11303.2,-5.9101562,-5.2109375,-5.3281250,0.0494385,-0.1939697,-0.9568481,0.2105713,-0.7617188,7.6503906,-11.4687500
11308.2,-8.1328125,-4.4531250,-4.8359375,0.0759888,-0.1693726,-0.9614868,0.2027588,-0.9160156,8.7910156,-12.5898438
11312.7,-10.2500000,-3.4531250,-4.4453125,0.1032104,-0.1445923,-0.9647217,0.1942749,-1.0371094,9.8632812,-13.6386719
11318.4,-13.3085938,-1.0273438,-3.3007812,0.1362915,-0.1147461,-0.9667358,0.1836548,-1.0585938,10.7910156,-14.5625000
11323.2,-15.0742188,0.1406250,-2.9531250,0.1727295,-0.0817871,-0.9664307,0.1716919,-0.9472656,11.5585938,-15.3457031
11328.2,-16.7187500,1.2929688,-2.6406250,0.2076416,-0.0498657,-0.9636841,0.1601562,-0.8242188,12.0332031,-15.9453125
11333.2,-18.1601562,2.4414062,-2.3945312,0.2421875,-0.0175171,-0.9586182,0.1484375,-0.7109375,12.2558594,-16.3730469
11338.0,-20.0039062,4.0156250,-1.4921875,0.2799072,0.0189819,-0.9502563,0.1351318,-0.6210938,12.2968750,-16.5957031
11343.0,-20.7382812,4.3164062,-1.0390625,0.3150635,0.0540161,-0.9396362,0.1220703,-0.5898438,12.1640625,-16.6015625
11348.2,-21.2070312,4.4140625,-0.5195312,0.3485107,0.0886230,-0.9267578,0.1087646,-0.6347656,11.8691406,-16.4101562
11353.2,-21.4765625,4.2968750,0.0078125,0.3789673,0.1209717,-0.9124756,0.0957031,-0.7675781,11.5039062,-16.0800781
11358.0,-21.6328125,4.4375000,1.1015625,0.4105835,0.1553955,-0.8948364,0.0808105,-0.9824219,11.0976562,-15.5820312
11363.0,-21.9218750,4.2968750,1.3906250,0.4384155,0.1860962,-0.8767700,0.0664062,-1.2421875,10.6230469,-14.9492188
11368.4,-22.2890625,4.1250000,1.6601562,0.4642334,0.2145996,-0.8577271,0.0517578,-1.5566406,10.1386719,-14.1894531
11372.7,-22.5390625,4.1406250,1.9882812,0.4874878,0.2398682,-0.8386841,0.0374146,-1.9042969,9.6601562,-13.3203125
11378.2,-23.1171875,5.0156250,2.8515625,0.5095215,0.2631226,-0.8189087,0.0227051,-2.2753906,9.1914062,-12.3925781
11383.2,-23.5234375,5.1601562,2.9843750,0.5316772,0.2853394,-0.7974243,0.0069580,-2.6503906,8.7949219,-11.4785156
11388.4,-23.8632812,5.2929688,3.3281250,0.5507202,0.3029785,-0.7777100,-0.0072632,-3.0019531,8.4472656,-10.5625000
11392.7,-24.0546875,5.4765625,3.8398438,0.5682983,0.3176880,-0.7587280,-0.0208740,-3.3496094,8.1191406,-9.7070312
11398.2,-23.9375000,5.9570312,5.1757812,0.5866699,0.3311157,-0.7381592,-0.0359497,-3.7011719,7.7910156,-8.9179688
11403.2,-23.6289062,5.7578125,5.6914062,0.6054077,0.3431396,-0.7162476,-0.0519409,-4.0781250,7.3925781,-8.1738281
11408.4,-23.1718750,5.1445312,6.2226562,0.6217041,0.3519287,-0.6965942,-0.0665283,-4.4843750,6.9687500,-7.4667969
11412.5,-22.5468750,4.3437500,6.8750000,0.6358643,0.3579102,-0.6791382,-0.0798950,-4.9238281,6.4746094,-6.7343750
11418.4,-21.3593750,3.4062500,7.4062500,0.6506348,0.3621216,-0.6607666,-0.0946045,-5.3867188,5.9199219,-5.9531250
11423.2,-18.2500000,1.7539062,8.8125000,0.6647339,0.3637085,-0.6433105,-0.1093750,-5.8808594,5.3085938,-5.0996094
11428.4,-16.5195312,0.7890625,9.5507812,0.6776733,0.3624878,-0.6278076,-0.1234131,-6.4082031,4.6152344,-4.1503906
11432.5,-14.5625000,-0.3007812,10.4218750,0.6886597,0.3587646,-0.6152344,-0.1359253,-6.9550781,3.8632812,-3.1152344
11438.4,-12.7773438,-1.1679688,11.1484375,0.7001953,0.3515015,-0.6032104,-0.1493530,-7.4726562,3.0683594,-2.0332031
11443.2,-8.9453125,-2.6640625,11.6054688,0.7113037,0.3408203,-0.5928955,-0.1625366,-7.9199219,2.2539062,-0.9335938
11448.4,-7.6953125,-3.0273438,11.2773438,0.7208862,0.3281250,-0.5851440,-0.1740112,-8.2500000,1.4628906,0.1523438
11452.7,-6.7421875,-3.0312500,10.5312500,0.7294922,0.3135376,-0.5793457,-0.1841431,-8.4160156,0.7578125,1.1562500
11458.2,-6.2656250,-2.5625000,9.8632812,0.7376099,0.2964478,-0.5750122,-0.1934204,-8.3925781,0.1816406,2.0175781
11463.2,-5.7539062,-2.1992188,8.1015625,0.7455444,0.2765503,-0.5717163,-0.2019653,-8.1210938,-0.1816406,2.7031250
11468.4,-5.8789062,-1.9804688,7.3789062,0.7523193,0.2576904,-0.5694580,-0.2082520,-7.6132812,-0.3203125,3.1660156
11473.0,-5.7968750,-2.1601562,6.4375000,0.7579346,0.2408447,-0.5676880,-0.2125854,-6.9062500,-0.3027344,3.4277344
11478.2,-6.7968750,-1.6484375,5.0703125,0.7640381,0.2221069,-0.5659180,-0.2159424,-6.1230469,-0.1464844,3.5234375
11483.2,-7.5625000,-1.2539062,4.4335938,0.7692261,0.2063599,-0.5641479,-0.2177734,-5.3730469,0.0371094,3.4746094
11488.4,-8.3203125,-0.9882812,3.9531250,0.7739868,0.1923218,-0.5623169,-0.2185059,-4.6972656,0.1953125,3.3417969
11492.7,-9.0898438,-0.1328125,3.4726562,0.7782593,0.1801147,-0.5604248,-0.2186279,-4.1191406,0.2910156,3.1582031
11498.2,-9.3945312,-0.0312500,2.9570312,0.7823486,0.1687622,-0.5584106,-0.2182007,-3.6152344,0.4062500,2.9589844
11503.2,-10.2109375,-0.9140625,3.0429688,0.7864990,0.1575928,-0.5562134,-0.2173462,-3.2460938,0.4804688,2.7812500
11508.4,-10.1015625,-0.5390625,3.0703125,0.7901611,0.1481323,-0.5540161,-0.2163696,-2.9648438,0.5742188,2.6367188
11512.8,-9.4804688,0.1835938,3.1757812,0.7933960,0.1400757,-0.5518188,-0.2153320,-2.7988281,0.6347656,2.5683594
11518.2,-6.5039062,1.3789062,3.6601562,0.7970581,0.1309204,-0.5493774,-0.2138672,-2.7128906,0.6250000,2.6132812
11523.0,-4.7343750,1.3085938,3.9843750,0.8003540,0.1222534,-0.5471802,-0.2123413,-2.7460938,0.4824219,2.7304688
11528.4,-3.1679688,0.5859375,4.3593750,0.8033447,0.1130371,-0.5454712,-0.2106323,-2.9121094,0.1445312,2.9082031
11532.8,-1.6523438,-0.6250000,4.6015625,0.8056641,0.1035767,-0.5444946,-0.2090454,-3.1992188,-0.3359375,3.1738281
11538.2,1.0234375,-3.7226562,4.9218750,0.8077393,0.0911255,-0.5444336,-0.2070923,-3.5820312,-0.9414062,3.5214844
11543.0,2.1289062,-5.0703125,4.7226562,0.8088379,0.0777588,-0.5455322,-0.2052612,-4.1406250,-1.7617188,3.9199219
11548.4,3.2226562,-5.7968750,4.2539062,0.8088379,0.0618286,-0.5482178,-0.2036133,-4.9082031,-2.8789062,4.4121094
11552.7,4.2265625,-6.2578125,3.6679688,0.8073120,0.0437012,-0.5526733,-0.2022095,-5.8027344,-4.2011719,4.9589844
11558.4,5.0585938,-6.4921875,3.0351562,0.8038940,0.0217896,-0.5593872,-0.2008667,-6.6464844,-5.6210938,5.5234375
11563.0,5.6562500,-6.9648438,1.8593750,0.7979736,-0.0046997,-0.5687866,-0.1992188,-7.3125000,-7.0449219,6.0976562
11568.4,5.5195312,-6.8632812,1.7226562,0.7898560,-0.0324097,-0.5797729,-0.1972046,-7.7011719,-8.4375000,6.5566406
11572.7,5.3789062,-6.5546875,1.6718750,0.7797241,-0.0604248,-0.5921021,-0.1945801,-7.8398438,-9.7851562,6.8710938
11578.2,5.3828125,-5.8906250,1.8046875,0.7663574,-0.0905151,-0.6066284,-0.1910400,-7.8066406,-11.0527344,7.0273438
11583.0,5.9218750,-4.1406250,2.2265625,0.7491455,-0.1229858,-0.6236572,-0.1863403,-7.6074219,-12.1210938,7.0214844
11588.4,6.1523438,-3.2460938,2.7148438,0.7301636,-0.1534424,-0.6407471,-0.1810913,-7.3535156,-13.0273438,6.8554688
11593.0,6.4101562,-2.6250000,3.1054688,0.7097778,-0.1817627,-0.6575317,-0.1754761,-7.0742188,-13.6621094,6.5820312
11598.2,6.6757812,-2.6562500,3.4843750,0.6849365,-0.2122192,-0.6763306,-0.1686401,-6.8125000,-14.0019531,6.2910156
11603.0,6.6406250,-2.9375000,3.8984375,0.6621094,-0.2374268,-0.6919556,-0.1625366,-6.6445312,-14.1250000,6.0039062
11608.4,6.6914062,-3.1718750,4.2500000,0.6342163,-0.2656250,-0.7092896,-0.1553345,-6.5195312,-13.9726562,5.7441406
11613.0,6.8515625,-3.6406250,4.3867188,0.6088867,-0.2896729,-0.7233276,-0.1489258,-6.4101562,-13.5820312,5.5214844
11618.2,7.1328125,-4.0976562,4.5273438,0.5809326,-0.3148804,-0.7369995,-0.1422119,-6.3203125,-13.0195312,5.3496094
11623.2,7.8515625,-4.9843750,4.1054688,0.5557861,-0.3367920,-0.7476807,-0.1363525,-6.2421875,-12.3378906,5.1953125
11628.4,8.2929688,-5.0820312,3.9335938,0.5281982,-0.3602295,-0.7578125,-0.1303101,-6.1445312,-11.5937500,5.0390625
11633.0,8.8554688,-5.1875000,3.4960938,0.5053711,-0.3792114,-0.7648926,-0.1255493,-6.0039062,-10.8339844,4.8730469
11638.4,9.4375000,-4.8007812,2.8750000,0.4794312,-0.4003906,-0.7716064,-0.1204224,-5.7929688,-10.0781250,4.6796875
11643.0,9.5976562,-3.7929688,1.5312500,0.4585571,-0.4171143,-0.7760010,-0.1165161,-5.5312500,-9.3691406,4.4511719
11648.4,9.4648438,-3.4648438,1.1171875,0.4353027,-0.4351807,-0.7800903,-0.1121826,-5.2207031,-8.7441406,4.1953125
11653.0,9.0039062,-3.5625000,0.7812500,0.4157715,-0.4499512,-0.7828979,-0.1085205,-4.8300781,-8.1542969,3.8906250
11658.2,8.5078125,-3.8164062,0.5625000,0.3955688,-0.4645386,-0.7853394,-0.1046753,-4.4140625,-7.5742188,3.5429688
11663.2,7.7343750,-4.1835938,0.2695312,0.3784790,-0.4764404,-0.7870483,-0.1013184,-4.0175781,-6.9921875,3.1757812
11668.4,7.6640625,-4.1796875,0.4179688,0.3606567,-0.4882202,-0.7886353,-0.0978394,-3.6757812,-6.3632812,2.7734375
11673.0,7.5898438,-4.1757812,0.4843750,0.3466797,-0.4970093,-0.7897339,-0.0953979,-3.4218750,-5.7148438,2.3515625
11731.0,6.4492188,-2.5000000,3.4101562,0.2008057,-0.5515747,-0.7993164,-0.1286621,-3.8339844,-2.9023438,0.6250000
11753.2,6.4726562,-2.5312500,3.4414062,0.1980591,-0.5535889,-0.7982788,-0.1307983,-3.4238281,-1.0878906,0.6816406
11758.4,5.6992188,-1.5156250,6.5234375,0.1944580,-0.5565796,-0.7962036,-0.1359253,-3.0625000,-0.1542969,0.5839844
11762.5,6.1171875,-1.0664062,7.6445312,0.1928711,-0.5587769,-0.7941895,-0.1408691,-2.7617188,0.2871094,0.4101562
11768.2,6.0117188,-1.2851562,7.9296875,0.1920166,-0.5604858,-0.7921753,-0.1466675,-2.4375000,0.7851562,0.2148438
11773.0,5.7226562,-1.4101562,8.1250000,0.1925049,-0.5614624,-0.7902222,-0.1526489,-2.1210938,1.3203125,0.0292969
11778.2,5.4609375,-1.3554688,8.3710938,0.1942749,-0.5616455,-0.7884521,-0.1586304,-1.8359375,1.8222656,-0.1464844
11782.7,4.8984375,-0.8164062,8.6289062,0.1970215,-0.5612793,-0.7868042,-0.1645508,-1.6093750,2.1933594,-0.3183594
11788.2,4.5468750,-0.7968750,8.6757812,0.2006836,-0.5603027,-0.7852783,-0.1707764,-1.4003906,2.5371094,-0.4707031
11793.2,4.1093750,-0.6796875,8.9296875,0.2056274,-0.5585327,-0.7836914,-0.1777954,-1.1230469,2.9941406,-0.6230469
11798.4,3.8750000,-0.6132812,8.7890625,0.2116699,-0.5561523,-0.7822266,-0.1845703,-0.7714844,3.6386719,-0.8281250
11802.7,3.2968750,-0.3046875,8.2070312,0.2188721,-0.5529785,-0.7808838,-0.1909790,-0.3183594,4.4160156,-1.0703125
11808.2,2.2382812,0.1757812,8.0429688,0.2293701,-0.5479736,-0.7794800,-0.1988525,0.2265625,5.2871094,-1.3496094
11813.2,1.5234375,0.2421875,7.7851562,0.2416382,-0.5418091,-0.7780762,-0.2065430,0.8183594,6.1621094,-1.6210938
11818.4,1.0039062,-0.1406250,7.2929688,0.2559204,-0.5343018,-0.7766113,-0.2142334,1.4003906,6.9746094,-1.8671875
11822.7,-0.6953125,0.6835938,7.1679688,0.2709351,-0.5261841,-0.7750854,-0.2212524,1.9765625,7.7246094,-2.0664062
11828.0,-1.5585938,0.7890625,6.9140625,0.2889404,-0.5160522,-0.7732544,-0.2286987,2.5253906,8.3281250,-2.2011719
11833.0,-2.6015625,0.7460938,6.8398438,0.3099976,-0.5038452,-0.7708130,-0.2363892,3.0683594,8.8574219,-2.2714844
11838.2,-3.8085938,0.7226562,6.7382812,0.3311157,-0.4913330,-0.7680054,-0.2431641,3.5781250,9.3710938,-2.2851562
11842.7,-7.1484375,0.2734375,6.6015625,0.3523560,-0.4785156,-0.7647095,-0.2491455,3.9218750,9.7753906,-2.2480469
11848.2,-8.8007812,0.1484375,6.4257812,0.3750610,-0.4645386,-0.7605591,-0.2551270,4.1074219,10.0234375,-2.1796875
11853.2,-9.9843750,0.0507812,6.1953125,0.4000854,-0.4489136,-0.7551270,-0.2612305,4.2421875,10.2363281,-2.0292969
11858.4,-10.6875000,-0.2890625,5.9531250,0.4234009,-0.4341431,-0.7491455,-0.2665405,4.2246094,10.2246094,-1.8281250
11862.7,-11.3125000,-1.6992188,5.7109375,0.4444580,-0.4208374,-0.7429199,-0.2709961,4.1308594,10.0937500,-1.5566406
11868.0,-11.2265625,-2.1445312,5.3398438,0.4665527,-0.4069824,-0.7354126,-0.2753906,3.9765625,9.8710938,-1.1972656
11873.2,-10.6796875,-2.2656250,5.0039062,0.4898682,-0.3926392,-0.7263794,-0.2795410,3.6972656,9.4570312,-0.7714844
11878.2,-9.7304688,-2.1796875,4.7109375,0.5099487,-0.3809204,-0.7175903,-0.2827759,3.2734375,8.7656250,-0.2851562
11882.5,-7.6093750,-2.5039062,4.8906250,0.5266113,-0.3718872,-0.7092896,-0.2850342,2.7382812,7.7988281,0.2558594
11888.0,-6.7578125,-2.9062500,4.8984375,0.5424194,-0.3645020,-0.7005615,-0.2866211,2.1523438,6.7089844,0.8691406
11893.0,-6.0859375,-3.2773438,4.9960938,0.5572510,-0.3591919,-0.6912842,-0.2873535,1.5722656,5.6269531,1.5605469
11898.2,-5.5312500,-3.5117188,5.3710938,0.5690918,-0.3569336,-0.6828613,-0.2870483,1.0214844,4.6523438,2.2734375
11902.8,-3.7343750,-3.5273438,7.1054688,0.5788574,-0.3571777,-0.6750488,-0.2858887,0.5078125,3.7753906,2.9414062
11908.2,-2.4687500,-3.0703125,8.0859375,0.5874023,-0.3597412,-0.6671143,-0.2838135,-0.0253906,2.9511719,3.5039062
11913.2,-1.9882812,-2.4375000,9.0585938,0.5949707,-0.3648071,-0.6587524,-0.2809448,-0.5507812,2.2285156,3.9355469
11918.4,-3.6562500,-1.2265625,10.4414062,0.6007690,-0.3712769,-0.6511841,-0.2778931,-1.0449219,1.6699219,4.2519531
11922.7,-1.0976562,-5.1445312,12.5507812,0.6050415,-0.3784790,-0.6442261,-0.2750244,-1.4902344,1.3007812,4.4667969
11928.0,-0.3632812,-5.1562500,13.8320312,0.6090698,-0.3880005,-0.6361084,-0.2717896,-1.8964844,1.0468750,4.6035156
11933.0,0.1250000,-4.6914062,15.2304688,0.6120605,-0.3978271,-0.6282959,-0.2689209,-2.2773438,0.8750000,4.6816406
11938.2,1.0273438,-4.3007812,16.0429688,0.6145020,-0.4082642,-0.6202393,-0.2664185,-2.6132812,0.8730469,4.7207031
11942.7,3.4218750,-4.2812500,16.5351562,0.6166382,-0.4184570,-0.6121216,-0.2644653,-2.8535156,1.1035156,4.6972656
11948.2,3.2578125,-5.0625000,18.5742188,0.6190186,-0.4290161,-0.6029663,-0.2630615,-2.9550781,1.5429688,4.6250000
11953.2,3.7695312,-5.4335938,19.2734375,0.6220093,-0.4400024,-0.5922852,-0.2621460,-2.9648438,1.9726562,4.5976562
11958.2,4.7617188,-5.3828125,19.0937500,0.6250610,-0.4499512,-0.5817261,-0.2615356,-2.9511719,2.0898438,4.5742188
11962.5,5.6875000,-4.6171875,16.6328125,0.6277466,-0.4588013,-0.5720825,-0.2609863,-2.8710938,1.9492188,4.4062500
11968.0,5.5000000,-4.3750000,15.5078125,0.6302490,-0.4679565,-0.5622559,-0.2601929,-2.7382812,1.6660156,4.2304688
11973.2,5.0546875,-4.3203125,14.4023438,0.6324463,-0.4774170,-0.5522461,-0.2589722,-2.4687500,1.4453125,4.0371094
11978.2,4.5507812,-4.2929688,13.2304688,0.6343994,-0.4854736,-0.5435791,-0.2575684,-2.1582031,1.2695312,3.7539062
11982.5,3.3242188,-4.4921875,10.8984375,0.6361694,-0.4923096,-0.5361328,-0.2558594,-1.6914062,1.0546875,3.4980469
11987.2,2.5625000,-3.9023438,9.5976562,0.6381226,-0.4982910,-0.5294189,-0.2534790,-1.1074219,0.8085938,3.2246094
11993.2,2.0703125,-3.3281250,8.4765625,0.6403809,-0.5034180,-0.5233154,-0.2502441,-0.5058594,0.5917969,2.8730469
11998.2,1.6835938,-3.0078125,7.5234375,0.6427612,-0.5069580,-0.5186768,-0.2468262,0.0195312,0.4238281,2.5000000
12002.5,1.0312500,-2.9218750,6.1445312,0.6450195,-0.5090942,-0.5153198,-0.2434692,0.4335938,0.2773438,2.1328125
12007.0,0.8320312,-2.8710938,5.6132812,0.6475220,-0.5104370,-0.5125732,-0.2397461,0.7480469,0.1425781,1.8105469
12013.4,0.7226562,-2.7656250,5.0390625,0.6502075,-0.5111084,-0.5104370,-0.2356567,1.0058594,0.0371094,1.5449219
12018.2,0.7070312,-2.6328125,4.5234375,0.6527710,-0.5110474,-0.5089111,-0.2318115,1.1855469,-0.0195312,1.3320312
12022.5,1.1523438,-3.0625000,3.5351562,0.6550903,-0.5106201,-0.5079346,-0.2283936,1.2832031,-0.0761719,1.1523438
12027.0,1.8828125,-3.6445312,2.8281250,0.6574097,-0.5098877,-0.5072632,-0.2247314,1.3105469,-0.1796875,1.0156250
12033.4,2.8515625,-4.3281250,1.8750000,0.6597290,-0.5089722,-0.5068970,-0.2208862,1.3046875,-0.2695312,0.9335938
12038.2,3.9726562,-4.5546875,0.6875000,0.6617432,-0.5080566,-0.5067139,-0.2171631,1.2578125,-0.3750000,0.8925781
12042.5,6.2890625,-5.0820312,-1.9023438,0.6633911,-0.5073853,-0.5067139,-0.2138672,1.1914062,-0.4941406,0.8769531
12047.0,7.3125000,-5.6953125,-3.0546875,0.6647949,-0.5068359,-0.5069580,-0.2102051,1.1015625,-0.6621094,0.8789062
12053.4,7.7734375,-6.1757812,-3.9335938,0.6658936,-0.5065308,-0.5075073,-0.2060547,0.9960938,-0.8652344,0.8789062
12058.2,7.8593750,-6.7500000,-4.2070312,0.6665649,-0.5064697,-0.5082397,-0.2020264,0.8886719,-1.0683594,0.8847656
12062.7,8.2343750,-6.9687500,-4.4570312,0.6669312,-0.5066528,-0.5091553,-0.1983032,0.8554688,-1.2148438,0.8945312
12068.0,8.6679688,-6.7109375,-4.2929688,0.6677246,-0.5066528,-0.5097046,-0.1939087,0.8496094,-1.3281250,0.8808594
12073.4,8.6796875,-5.9765625,-4.0195312,0.6682739,-0.5067139,-0.5107422,-0.1891479,0.8242188,-1.4960938,0.7968750
12078.2,8.6406250,-5.6914062,-3.8554688,0.6682739,-0.5068970,-0.5122681,-0.1845703,0.6835938,-1.8105469,0.6191406
12082.8,8.3710938,-5.4453125,-3.7890625,0.6675415,-0.5072021,-0.5143433,-0.1806641,0.4140625,-2.2304688,0.3613281
12087.0,7.0546875,-5.2304688,-2.9726562,0.6654663,-0.5079346,-0.5176392,-0.1767578,0.0097656,-2.7246094,0.0039062
12093.4,4.8789062,-6.2304688,-2.9609375,0.6614990,-0.5093384,-0.5225220,-0.1732178,-0.5859375,-3.3378906,-0.4277344
12098.2,2.8242188,-6.8710938,-2.6562500,0.6558838,-0.5112915,-0.5284424,-0.1707153,-1.2714844,-3.9316406,-0.9023438
12102.8,1.3437500,-7.1601562,-2.1210938,0.6491089,-0.5137939,-0.5347900,-0.1693726,-2.0253906,-4.3750000,-1.3652344
12107.2,-0.6445312,-5.8359375,0.8046875,0.6397095,-0.5173340,-0.5426636,-0.1691895,-2.8105469,-4.6406250,-1.7656250
12113.4,-1.1406250,-4.8007812,2.3125000,0.6284180,-0.5217285,-0.5512085,-0.1704712,-3.5136719,-4.6093750,-2.0820312
12118.2,-1.7851562,-4.1718750,3.5781250,0.6173706,-0.5261841,-0.5585938,-0.1731567,-4.0468750,-4.1953125,-2.2910156
12122.8,-2.8320312,-4.1367188,4.6328125,0.6064453,-0.5307617,-0.5648804,-0.1772461,-4.4980469,-3.5292969,-2.3652344
12127.0,-6.1914062,-3.7343750,6.3750000,0.5954590,-0.5354614,-0.5701904,-0.1831665,-4.8261719,-2.7285156,-2.4980469
12133.4,-7.8945312,-3.5742188,7.4140625,0.5839233,-0.5404053,-0.5747681,-0.1912842,-5.2324219,-2.0605469,-2.7207031
12138.2,-9.4609375,-3.1445312,8.4296875,0.5728760,-0.5451660,-0.5781250,-0.2009277,-5.8105469,-1.5488281,-2.9472656
12142.8,-10.7656250,-2.0742188,9.3125000,0.5625000,-0.5496216,-0.5804443,-0.2111816,-6.4707031,-1.1972656,-3.1269531
12147.2,-13.1210938,0.0664062,11.1914062,0.5501099,-0.5549927,-0.5823364,-0.2241821,-7.0625000,-0.9531250,-3.2734375
12153.4,-14.3945312,0.4804688,12.2539062,0.5369263,-0.5605469,-0.5835571,-0.2386475,-7.4062500,-0.6074219,-3.3984375
12158.2,-15.3046875,0.7304688,13.2187500,0.5242310,-0.5656128,-0.5839233,-0.2536011,-7.4746094,-0.1425781,-3.4589844
12162.7,-15.7382812,1.1210938,13.9531250,0.5131226,-0.5697021,-0.5835571,-0.2676392,-7.3964844,0.3007812,-3.4941406
12167.2,-14.6523438,1.7460938,14.4062500,0.5011597,-0.5736084,-0.5825195,-0.2836304,-7.2460938,0.6250000,-3.4785156
12173.4,-14.0937500,1.3398438,14.1328125,0.4892578,-0.5771484,-0.5809326,-0.3001099,-7.0195312,0.8222656,-3.3613281
12178.2,-13.2890625,0.7773438,13.7890625,0.4786377,-0.5800171,-0.5789795,-0.3150024,-6.6757812,0.8906250,-3.1152344
12183.0,-12.1406250,0.6445312,12.9218750,0.4696045,-0.5825195,-0.5768433,-0.3276978,-6.1953125,0.8632812,-2.6835938
12188.0,-9.7343750,-0.0039062,11.7929688,0.4599609,-0.5854492,-0.5740356,-0.3408203,-5.6015625,0.6640625,-2.1015625
12193.4,-8.5742188,-0.6875000,11.4765625,0.4519653,-0.5885010,-0.5711060,-0.3510132,-4.8964844,0.4375000,-1.4042969
12198.2,-7.5078125,-1.2304688,11.4023438,0.4451904,-0.5918579,-0.5679321,-0.3590698,-4.1386719,0.1757812,-0.6464844
12202.7,-6.5664062,-1.7187500,11.3007812,0.4404297,-0.5952759,-0.5648804,-0.3641357,-3.3593750,-0.0449219,0.1054688
12207.2,-5.3085938,-2.5078125,11.1484375,0.4365234,-0.5994873,-0.5612183,-0.3676147,-2.6250000,-0.2285156,0.8320312
12312.0,-1.0000000,-4.9687500,8.7265625,0.5698242,-0.6108398,-0.4598389,-0.3012085,3.1875000,1.2558594,3.0937500
12338.0,-0.9609375,-4.9218750,8.6640625,0.5745239,-0.6096802,-0.4577026,-0.2979126,3.6855469,0.8632812,2.8652344
12343.4,3.0507812,-4.4843750,7.8046875,0.5839233,-0.6066895,-0.4544678,-0.2904663,3.7851562,0.7617188,2.7519531
12347.0,4.5078125,-4.4648438,6.9531250,0.5923462,-0.6038208,-0.4516602,-0.2837524,3.7636719,0.8046875,2.6875000
12353.2,5.0507812,-4.4726562,6.5078125,0.6019287,-0.6002808,-0.4484253,-0.2761841,3.7871094,0.9023438,2.6054688
12357.8,5.5937500,-5.2343750,6.1367188,0.6105957,-0.5967407,-0.4453735,-0.2695923,3.8437500,1.0175781,2.5136719
12363.2,5.3164062,-6.7109375,6.0000000,0.6201172,-0.5924683,-0.4421387,-0.2625122,3.9394531,1.1113281,2.3964844
12367.2,3.3242188,-7.1953125,4.2148438,0.6289062,-0.5881348,-0.4391479,-0.2562866,4.0605469,1.1816406,2.2539062
12373.2,3.5468750,-6.2773438,3.4023438,0.6384888,-0.5828857,-0.4361572,-0.2496338,4.1835938,1.2070312,2.0898438
12377.8,4.0468750,-5.2265625,2.9101562,0.6472778,-0.5776367,-0.4336548,-0.2436523,4.3125000,1.1972656,1.9003906
12383.2,4.4726562,-4.4335938,2.4179688,0.6567993,-0.5712891,-0.4312134,-0.2372437,4.4160156,1.1914062,1.6894531
12388.0,4.8164062,-4.1210938,2.1445312,0.6657715,-0.5648193,-0.4291382,-0.2313843,4.5175781,1.2597656,1.4824219
12393.2,4.8164062,-3.7890625,2.3007812,0.6748657,-0.5577393,-0.4271851,-0.2258911,4.6386719,1.4238281,1.3007812
12398.0,4.8867188,-3.5742188,2.3164062,0.6836548,-0.5504150,-0.4251709,-0.2210083,4.7363281,1.6367188,1.1425781
12403.4,4.9882812,-3.3867188,2.3984375,0.6934204,-0.5418091,-0.4230347,-0.2159424,4.7167969,1.5937500,0.9414062
12407.0,5.3359375,-2.6835938,2.9531250,0.7013550,-0.5343628,-0.4215698,-0.2117920,4.5527344,1.3320312,0.7089844
12413.2,5.4765625,-2.3046875,3.2890625,0.7096558,-0.5258789,-0.4205322,-0.2072754,4.3378906,1.1035156,0.4921875
12418.0,5.5781250,-1.9101562,3.7031250,0.7165527,-0.5184326,-0.4199829,-0.2035522,4.1015625,1.0156250,0.2929688
12423.4,5.6679688,-1.7421875,4.0468750,0.7246094,-0.5098877,-0.4183960,-0.1996460,3.9062500,1.0820312,0.0917969
12427.4,5.6171875,-0.9609375,4.6250000,0.7316895,-0.5021362,-0.4168091,-0.1968384,3.7304688,1.2460938,-0.1230469
12432.2,5.1445312,-0.8359375,4.5156250,0.7390137,-0.4936523,-0.4151001,-0.1946411,3.5566406,1.4160156,-0.3769531
12438.0,4.7265625,-0.8242188,4.2500000,0.7454224,-0.4857788,-0.4134521,-0.1934814,3.4179688,1.5488281,-0.6738281
12443.4,4.4765625,-1.1757812,4.0429688,0.7521362,-0.4767456,-0.4119263,-0.1931763,3.3164062,1.6503906,-1.0253906
12447.2,3.6210938,-2.0546875,3.8437500,0.7577515,-0.4686279,-0.4107056,-0.1936646,3.2851562,1.7089844,-1.4140625
12453.2,2.6601562,-3.0000000,3.8281250,0.7639160,-0.4587402,-0.4098511,-0.1951294,3.3046875,1.7460938,-1.7988281
12457.8,0.5898438,-4.6523438,3.5429688,0.7690430,-0.4497070,-0.4092407,-0.1970825,3.4023438,1.7968750,-2.1796875
12463.2,-0.5781250,-5.1132812,3.5078125,0.7747192,-0.4385986,-0.4091187,-0.2000732,3.5410156,1.8750000,-2.5488281
12467.4,-1.9062500,-3.9179688,3.4804688,0.7797852,-0.4279175,-0.4092407,-0.2033081,3.6562500,1.9042969,-2.9179688
12472.2,-2.1718750,-3.4335938,3.4453125,0.7849731,-0.4157104,-0.4097900,-0.2076416,3.7246094,1.9179688,-3.2792969
12478.0,-2.1054688,-3.3593750,3.8007812,0.7894897,-0.4039307,-0.4105225,-0.2121582,3.7734375,1.9902344,-3.6406250
12483.4,-2.5625000,-3.6914062,4.3281250,0.7942505,-0.3901978,-0.4115601,-0.2180176,3.8457031,2.1347656,-4.0039062
12487.0,-7.0078125,-4.8085938,2.9648438,0.7984009,-0.3772583,-0.4123535,-0.2239990,3.9277344,2.3144531,-4.3281250
12492.2,-8.5976562,-4.5585938,2.1601562,0.8027954,-0.3623047,-0.4132690,-0.2312622,4.0410156,2.4472656,-4.5878906
12497.8,-9.7265625,-3.9335938,1.6015625,0.8065796,-0.3486328,-0.4138794,-0.2378540,4.1933594,2.5429688,-4.7558594
12503.2,-10.7343750,-3.1992188,0.9062500,0.8107300,-0.3321533,-0.4146729,-0.2457275,4.3789062,2.6367188,-4.8593750
12507.8,-12.1250000,-1.2265625,-0.1132812,0.8145142,-0.3167725,-0.4151001,-0.2527466,4.5976562,2.7695312,-4.8945312
12512.2,-12.5742188,0.0585938,-0.4062500,0.8187256,-0.2990723,-0.4152832,-0.2603149,4.8750000,3.0527344,-4.8398438
12517.5,-12.2109375,1.3125000,-0.6015625,0.8229370,-0.2822266,-0.4146118,-0.2669067,5.1914062,3.5253906,-4.7324219
12522.2,-10.9101562,2.4765625,0.2109375,0.8275757,-0.2639160,-0.4132080,-0.2733765,5.4531250,3.7558594,-4.5937500
12526.8,-9.5820312,2.3515625,1.0546875,0.8321533,-0.2448730,-0.4116821,-0.2794189,5.5468750,3.4453125,-4.3964844
12532.2,-9.2382812,2.0781250,1.1796875,0.8362427,-0.2257080,-0.4107056,-0.2846680,5.4960938,2.9570312,-4.1093750
12543.4,-9.4101562,0.5976562,0.5195312,0.8414917,-0.1929932,-0.4115601,-0.2919312,5.0957031,1.8222656,-3.4707031
12550.7,-8.1445312,0.0937500,-1.0742188,0.8432617,-0.1779785,-0.4129028,-0.2946167,4.7675781,1.2148438,-3.2167969
12555.0,-7.2265625,-0.0273438,-1.4218750,0.8441162,-0.1639404,-0.4152222,-0.2969360,4.3398438,0.4960938,-3.0234375
12557.3,-7.2109375,-0.2226562,-1.4375000,0.8442993,-0.1512451,-0.4182129,-0.2989502,4.0625000,0.2441406,-2.8515625
12563.0,-6.2460938,-0.0898438,-1.8593750,0.8696289,-0.1162720,-0.4170532,-0.2373047,4.0761719,0.5742188,-2.7070312
12568.0,-4.3828125,0.7070312,-2.4648438,0.8864136,-0.0849609,-0.4132080,-0.1904907,4.2753906,1.0019531,-2.5644531
12572.4,-3.7656250,0.8476562,-2.2500000,0.8984985,-0.0570679,-0.4074097,-0.1531372,4.5097656,1.3378906,-2.4667969
12583.0,-2.7421875,0.1328125,-1.9101562,0.9085083,-0.0194092,-0.3987427,-0.1232910,4.7773438,1.5527344,-2.4453125
12590.8,-3.6835938,0.0429688,-0.2929688,0.9144897,0.0030518,-0.3914185,-0.1021729,4.8222656,1.6074219,-2.5019531
12598.6,-3.9179688,0.1562500,0.3632812,0.9193726,0.0241089,-0.3837280,-0.0834961,4.7773438,1.9941406,-2.6347656
12602.7,-4.2265625,0.5156250,0.9843750,0.9212646,0.0521851,-0.3756104,-0.0863037,4.6445312,2.2148438,-2.7421875
12607.2,-5.4921875,1.2890625,2.7109375,0.9223022,0.0657349,-0.3704834,-0.0882568,4.4433594,2.4160156,-2.8769531
12612.2,-6.1914062,1.2968750,3.3906250,0.9233398,0.0798950,-0.3645020,-0.0908813,4.2285156,2.5820312,-3.0507812
12623.0,-7.6875000,1.1171875,4.5117188,0.9248047,0.1046753,-0.3526611,-0.0973511,3.7128906,2.6210938,-3.4335938
12631.9,-8.1562500,0.9804688,5.6484375,0.9284668,0.1217651,-0.3403931,-0.0852661,3.3769531,2.3613281,-3.5800781
12638.4,-8.9375000,-0.3593750,5.4726562,0.9313354,0.1376953,-0.3286743,-0.0753784,2.6601562,1.6250000,-3.7617188
12642.7,-10.0000000,-0.3164062,5.0585938,0.9331055,0.1613159,-0.3129883,-0.0728760,2.4238281,1.2792969,-3.8203125
12647.0,-11.9531250,-0.2031250,4.2539062,0.9346313,0.1732788,-0.3034668,-0.0662842,2.2988281,1.0136719,-3.8691406
12652.2,-12.6523438,0.7265625,3.6718750,0.9355469,0.1856689,-0.2941284,-0.0619507,2.3125000,0.8828125,-3.8789062
12663.2,-12.9531250,2.8281250,2.8593750,0.9350586,0.2051392,-0.2817383,-0.0644531,2.5605469,1.0332031,-3.8125000
12670.9,-11.7382812,4.3828125,2.3164062,0.9355469,0.2165527,-0.2723389,-0.0607910,2.7187500,1.3242188,-3.7128906
12675.5,-10.8007812,4.0742188,2.4648438,0.9358521,0.2283325,-0.2621460,-0.0575562,2.9628906,1.6914062,-3.6210938
12683.4,-9.8632812,3.5585938,2.7656250,0.9348145,0.2503662,-0.2448730,-0.0586548,3.5332031,2.2714844,-3.2753906
12688.0,-8.7070312,2.7226562,3.1132812,0.9345093,0.2633667,-0.2329712,-0.0550537,3.6406250,2.3027344,-2.9550781
12692.2,-8.1562500,2.4804688,3.1484375,0.9342041,0.2742310,-0.2225342,-0.0504761,3.5839844,2.1328125,-2.5703125
12696.8,-7.7578125,2.4765625,3.0898438,0.9334106,0.2854614,-0.2123413,-0.0460205,3.3789062,1.8222656,-2.1406250
12702.4,-7.3593750,2.5156250,2.9296875,0.9328003,0.2955322,-0.2024536,-0.0398560,3.1269531,1.4687500,-1.7031250
12706.9,-6.6328125,2.5273438,2.8046875,0.9319458,0.3045044,-0.1940308,-0.0337524,2.8554688,1.0332031,-1.3027344
12718.5,-5.9492188,2.5078125,2.8945312,0.9290771,0.3187256,-0.1854248,-0.0284424,2.3437500,0.2500000,-0.7812500
