SECONDS,ax,ay,az,qr,qi,qj,qk,gy,gp,gr
9.2550,-0.0078125,-0.0136719,0.0195312,0.9573975,-0.0268555,-0.0513916,0.2828369,0.0000000,0.0000000,0.0000000
9.2680,-0.0078125,-0.0136719,0.0195312,0.9573975,-0.0268555,-0.0513916,0.2828369,0.0000000,0.0000000,0.0000000
9.2722,0.0000000,0.0136719,0.0195312,0.9573975,-0.0268555,-0.0513916,0.2828369,0.0000000,0.0000000,0.0000000
9.2770,0.0234375,-0.0019531,-0.0273438,0.9573975,-0.0268555,-0.0513916,0.2828369,0.0000000,0.0000000,0.0000000
9.2824,-0.0156250,0.0097656,0.0000000,0.9573975,-0.0268555,-0.0513916,0.2828369,0.0000000,0.0000000,0.0000000
9.2880,-0.0195312,0.0566406,0.0390625,0.9573975,-0.0268555,-0.0513916,0.2828369,0.0000000,0.0000000,0.0000000
9.2917,-0.0039062,-0.0058594,0.0000000,0.9573975,-0.0268555,-0.0513916,0.2828369,0.0000000,0.0000000,0.0000000
9.2970,0.0039062,-0.0136719,-0.0273438,0.9573975,-0.0268555,-0.0513916,0.2828369,0.0000000,0.0000000,0.0000000
9.3024,0.0039062,0.0097656,-0.0390625,0.9573975,-0.0268555,-0.0513916,0.2828369,0.0000000,0.0000000,0.0000000
9.3080,-0.0117188,-0.0019531,-0.0273438,0.9573975,-0.0268555,-0.0513916,0.2828369,0.0000000,0.0000000,0.0000000
9.3113,-0.0156250,-0.0097656,0.0117188,0.9573975,-0.0268555,-0.0513916,0.2828369,0.0000000,0.0000000,0.0000000
9.3168,0.0039062,0.0214844,-0.0078125,0.9573975,-0.0268555,-0.0513916,0.2828369,0.0000000,0.0000000,0.0000000
9.3225,-0.0195312,0.0214844,-0.0078125,0.9573975,-0.0268555,-0.0513916,0.2828369,0.0000000,0.0000000,0.0000000
9.3268,-0.0156250,0.0097656,-0.0195312,0.9573975,-0.0268555,-0.0513916,0.2828369,0.0000000,0.0000000,0.0000000
9.3317,-0.0156250,-0.0097656,0.0000000,0.9573975,-0.0268555,-0.0513916,0.2828369,0.0000000,0.0000000,0.0000000
9.3370,0.0000000,0.0019531,0.0000000,0.9573975,-0.0268555,-0.0513916,0.2828369,0.0000000,0.0000000,0.0000000
9.3424,0.0078125,-0.0019531,-0.0078125,0.9573975,-0.0268555,-0.0513916,0.2828369,0.0000000,0.0000000,0.0000000
9.3480,-0.0039062,-0.0097656,0.0312500,0.9573975,-0.0268555,-0.0513916,0.2828369,0.0000000,0.0000000,0.0000000
9.3517,0.0117188,-0.0058594,0.0195312,0.9573975,-0.0268555,-0.0513916,0.2828369,0.0000000,0.0000000,0.0000000
9.3570,0.0000000,-0.0253906,-0.0078125,0.9573975,-0.0268555,-0.0513916,0.2828369,0.0000000,0.0000000,0.0000000
9.3624,-0.0195312,-0.0214844,0.0312500,0.9573975,-0.0268555,-0.0513916,0.2828369,0.0000000,0.0000000,0.0000000
9.3727,0.0000000,-0.0019531,0.0117188,0.9573975,-0.0268555,-0.0513916,0.2828369,0.0000000,0.0000000,0.0000000
9.3772,-0.0039062,-0.0332031,-0.0078125,0.9573975,-0.0268555,-0.0513916,0.2828369,0.0000000,0.0000000,0.0000000
9.3824,-0.0429688,-0.0136719,-0.0078125,0.9573975,-0.0268555,-0.0513916,0.2828369,0.0000000,0.0000000,0.0000000
9.3870,-0.0312500,0.0253906,0.0117188,0.9573975,-0.0268555,-0.0513916,0.2828369,0.0000000,0.0000000,0.0000000
9.3917,-0.0234375,0.0058594,-0.0546875,0.9573975,-0.0268555,-0.0513916,0.2828369,0.0000000,0.0000000,0.0000000
9.3968,0.0039062,-0.0292969,-0.0195312,0.9573975,-0.0268555,-0.0513916,0.2828369,0.0000000,0.0000000,0.0000000
9.4022,-0.0156250,0.0136719,0.0000000,0.9573975,-0.0268555,-0.0513916,0.2828369,0.0000000,0.0000000,0.0000000
9.4070,0.0000000,0.0058594,0.0117188,0.9573975,-0.0268555,-0.0513916,0.2828369,0.0000000,0.0000000,0.0000000
9.4115,-0.0117188,0.0019531,0.0000000,0.9573975,-0.0268555,-0.0513916,0.2828369,0.0000000,0.0000000,0.0000000
9.4168,0.0273438,-0.0097656,0.0468750,0.9573975,-0.0268555,-0.0513916,0.2828369,0.0000000,0.0000000,0.0000000
9.4222,-0.0195312,-0.0136719,0.0195312,0.9573975,-0.0268555,-0.0513916,0.2828369,0.0000000,0.0000000,0.0000000
9.4270,0.0468750,0.0097656,-0.0273438,0.9573975,-0.0268555,-0.0513916,0.2828369,0.0000000,0.0000000,0.0000000
9.4318,-0.0039062,-0.0253906,-0.0156250,0.9573975,-0.0268555,-0.0513916,0.2828369,0.0000000,0.0000000,0.0000000
9.4370,-0.0039062,-0.0019531,-0.0078125,0.9573975,-0.0268555,-0.0513916,0.2828369,0.0000000,0.0000000,0.0000000
9.4422,-0.0273438,-0.0019531,-0.0156250,0.9573975,-0.0268555,-0.0513916,0.2828369,0.0000000,0.0000000,0.0000000
9.4472,-0.0195312,0.0058594,0.0195312,0.9573975,-0.0268555,-0.0513916,0.2828369,0.0000000,0.0000000,0.0000000
9.4517,0.0234375,0.0253906,0.0000000,0.9573975,-0.0268555,-0.0513916,0.2828369,0.0000000,0.0000000,0.0000000
9.4570,-0.0156250,0.0136719,-0.0156250,0.9573975,-0.0268555,-0.0513916,0.2828369,0.0000000,0.0000000,0.0000000
9.4622,-0.0234375,-0.0019531,0.0312500,0.9573975,-0.0268555,-0.0513916,0.2828369,0.0000000,0.0000000,0.0000000
9.4670,-0.0156250,-0.0058594,0.0312500,0.9573975,-0.0268555,-0.0513916,0.2828369,0.0000000,0.0000000,0.0000000
9.4717,0.0156250,0.0097656,0.0117188,0.9573975,-0.0268555,-0.0513916,0.2828369,0.0000000,0.0000000,0.0000000
9.4768,0.0234375,-0.0292969,0.0117188,0.9573975,-0.0268555,-0.0513916,0.2828369,0.0000000,0.0000000,0.0000000
9.4822,0.0351562,0.0097656,0.0273438,0.9573975,-0.0268555,-0.0513916,0.2828369,0.0000000,0.0000000,0.0000000
9.4870,0.0312500,-0.0019531,-0.0195312,0.9573975,-0.0268555,-0.0513916,0.2828369,0.0000000,0.0000000,0.0000000
9.4915,0.0117188,0.0214844,-0.0078125,0.9573975,-0.0268555,-0.0513916,0.2828369,0.0000000,0.0000000,0.0000000
9.4970,-0.0039062,0.0175781,-0.0351562,0.9573975,-0.0268555,-0.0513916,0.2828369,0.0000000,0.0000000,0.0000000
9.5020,0.0273438,-0.0097656,-0.0078125,0.9573975,-0.0268555,-0.0513916,0.2828369,0.0000000,0.0000000,0.0000000
9.5070,0.0078125,0.0136719,0.0312500,0.9573975,-0.0268555,-0.0513916,0.2828369,0.0000000,0.0000000,0.0000000
9.5117,0.0000000,0.0058594,0.0117188,0.9573975,-0.0268555,-0.0513916,0.2828369,0.0000000,0.0000000,0.0000000
9.5168,-0.0195312,0.0058594,-0.0156250,0.9573975,-0.0268555,-0.0513916,0.2828979,0.0000000,0.0000000,0.0000000
9.5220,-0.0429688,-0.0136719,0.0117188,0.9573975,-0.0268555,-0.0513916,0.2828979,0.0000000,0.0000000,0.0000000
9.5270,0.0039062,-0.0058594,-0.0078125,0.9573975,-0.0268555,-0.0513916,0.2828979,0.0000000,0.0000000,0.0000000
9.5317,0.0312500,0.0019531,0.0195312,0.9573975,-0.0268555,-0.0513916,0.2828979,0.0000000,0.0000000,0.0000000
9.5368,-0.0156250,0.0136719,0.0117188,0.9573975,-0.0268555,-0.0513916,0.2828979,0.0000000,0.0000000,0.0000000
9.5420,-0.0078125,0.0097656,0.0117188,0.9573975,-0.0268555,-0.0513916,0.2828979,0.0000000,0.0000000,0.0000000
9.5470,-0.0234375,-0.0136719,-0.0273438,0.9573975,-0.0268555,-0.0513916,0.2828979,0.0000000,0.0000000,0.0000000
9.5517,-0.0078125,-0.0097656,-0.0273438,0.9573975,-0.0268555,-0.0513916,0.2828979,0.0000000,0.0000000,0.0000000
9.5568,0.0234375,-0.0292969,0.0117188,0.9573975,-0.0268555,-0.0513916,0.2828979,0.0000000,0.0000000,0.0000000
9.5620,-0.0039062,-0.0019531,0.0000000,0.9573975,-0.0268555,-0.0513916,0.2828979,0.0000000,0.0000000,0.0000000
9.5670,0.0117188,-0.0136719,0.0117188,0.9573975,-0.0268555,-0.0513916,0.2828979,0.0000000,0.0000000,0.0000000
9.5715,0.0195312,0.0175781,0.0117188,0.9573975,-0.0268555,-0.0513916,0.2828979,0.0000000,0.0000000,0.0000000
9.5767,0.0117188,0.0097656,-0.0195312,0.9573975,-0.0268555,-0.0513916,0.2828979,0.0000000,0.0000000,0.0000000
9.5820,0.0351562,-0.0136719,-0.0078125,0.9573975,-0.0268555,-0.0513916,0.2828979,0.0000000,0.0000000,0.0000000
9.5870,0.0117188,0.0019531,0.0507812,0.9573975,-0.0268555,-0.0513916,0.2828979,0.0000000,0.0000000,0.0000000
9.5913,0.0195312,-0.0019531,0.0000000,0.9573975,-0.0268555,-0.0513916,0.2828979,0.0000000,0.0000000,0.0000000
9.5965,0.0117188,-0.0136719,-0.0078125,0.9573975,-0.0268555,-0.0513916,0.2828979,0.0000000,0.0000000,0.0000000
9.6022,-0.0039062,-0.0019531,0.0117188,0.9573975,-0.0268555,-0.0513916,0.2828979,0.0000000,0.0000000,0.0000000
9.6070,-0.0078125,-0.0097656,0.0000000,0.9573975,-0.0268555,-0.0513916,0.2828979,0.0000000,0.0000000,0.0000000
9.6115,0.0156250,-0.0097656,0.0390625,0.9573975,-0.0268555,-0.0513916,0.2828979,0.0000000,0.0000000,0.0000000
9.6167,0.0078125,0.0019531,0.0000000,0.9573975,-0.0268555,-0.0513916,0.2828979,0.0000000,0.0000000,0.0000000
9.6222,0.0078125,-0.0058594,0.0585938,0.9573975,-0.0268555,-0.0513916,0.2828979,0.0000000,0.0000000,0.0000000
9.6325,-0.0234375,0.0214844,0.0117188,0.9573975,-0.0268555,-0.0513916,0.2828979,0.0000000,0.0000000,0.0000000
9.6368,-0.0312500,-0.0097656,0.0039062,0.9573975,-0.0268555,-0.0513916,0.2828979,0.0000000,0.0000000,0.0000000
9.6420,0.0000000,-0.0136719,0.0195312,0.9573975,-0.0268555,-0.0513916,0.2828979,0.0000000,0.0000000,0.0000000
9.6470,-0.0234375,0.0214844,0.0312500,0.9573975,-0.0268555,-0.0513916,0.2828979,0.0000000,0.0000000,0.0000000
9.6558,0.0117188,0.0019531,0.0312500,0.9573975,-0.0268555,-0.0513916,0.2828979,0.0000000,0.0000000,0.0000000
9.6573,0.0117188,0.0019531,0.0312500,0.9573975,-0.0268555,-0.0513916,0.2828979,0.0000000,0.0000000,0.0000000
9.6620,0.0195312,0.0175781,0.0312500,0.9573975,-0.0268555,-0.0513916,0.2828979,0.0000000,0.0000000,0.0000000
9.6670,0.0078125,0.0136719,0.0507812,0.9573975,-0.0268555,-0.0513916,0.2828979,0.0000000,0.0000000,0.0000000
9.6717,-0.0234375,-0.0019531,0.0039062,0.9573975,-0.0268555,-0.0513916,0.2828979,0.0000000,0.0000000,0.0000000
9.6770,0.0000000,0.0058594,-0.0078125,0.9573975,-0.0268555,-0.0513916,0.2828979,0.0000000,0.0000000,0.0000000
9.6820,0.0156250,0.0292969,-0.0195312,0.9573975,-0.0268555,-0.0513916,0.2828979,0.0000000,0.0000000,0.0000000
9.6870,0.0117188,0.0019531,0.0312500,0.9573975,-0.0268555,-0.0513916,0.2828979,0.0000000,0.0000000,0.0000000
9.6917,0.0234375,0.0058594,0.0117188,0.9573975,-0.0268555,-0.0513916,0.2828979,0.0000000,0.0000000,0.0000000
9.6970,0.0234375,0.0058594,-0.0195312,0.9573975,-0.0268555,-0.0513916,0.2828979,0.0000000,0.0000000,0.0000000
9.7020,0.0039062,0.0136719,0.0000000,0.9573975,-0.0268555,-0.0513916,0.2828979,0.0000000,0.0000000,0.0000000
9.7072,0.0156250,0.0097656,0.0312500,0.9573975,-0.0268555,-0.0513916,0.2828979,0.0000000,0.0000000,0.0000000
9.7122,-0.0234375,-0.0136719,-0.0156250,0.9573975,-0.0268555,-0.0513916,0.2828979,0.0000000,0.0000000,0.0000000
9.7168,0.0000000,0.0058594,0.0117188,0.9573975,-0.0268555,-0.0513916,0.2828979,0.0000000,0.0000000,0.0000000
9.7220,-0.0078125,0.0097656,0.0117188,0.9573975,-0.0268555,-0.0513916,0.2828979,0.0000000,0.0000000,0.0000000
9.7272,0.0039062,-0.0058594,-0.0078125,0.9573975,-0.0268555,-0.0513916,0.2828979,0.0000000,0.0000000,0.0000000
9.7322,0.0234375,0.0058594,-0.0195312,0.9573975,-0.0268555,-0.0513916,0.2828979,0.0000000,0.0000000,0.0000000
9.7375,0.0273438,-0.0097656,-0.0078125,0.9573975,-0.0268555,-0.0513916,0.2828979,0.0000000,0.0000000,0.0000000
9.7421,0.0234375,0.0058594,0.0195312,0.9573975,-0.0268555,-0.0513916,0.2828979,0.0000000,0.0000000,0.0000000
9.7557,0.0000000,0.0253906,-0.0078125,0.9573975,-0.0269165,-0.0513916,0.2828979,0.0000000,0.0000000,0.0000000
9.8130,0.0000000,-0.0136719,0.0117188,0.9573975,-0.0269165,-0.0513916,0.2828979,0.0000000,0.0000000,0.0000000
9.8690,0.0039062,-0.0058594,0.0000000,0.9573975,-0.0269165,-0.0513916,0.2828979,0.0000000,0.0000000,0.0000000
9.8728,-0.0156250,-0.0058594,0.0195312,0.9573975,-0.0269165,-0.0513916,0.2828979,0.0000000,0.0000000,0.0000000
9.8787,0.0156250,-0.0449219,0.0117188,0.9573975,-0.0269165,-0.0513916,0.2828979,0.0000000,0.0000000,0.0000000
9.8843,0.0351562,-0.0136719,0.0000000,0.9573975,-0.0269165,-0.0513916,0.2828979,0.0000000,0.0000000,0.0000000
9.8882,0.0195312,-0.0019531,0.0117188,0.9573975,-0.0269165,-0.0513916,0.2828979,0.0000000,0.0000000,0.0000000
9.8938,0.0000000,0.0058594,0.0117188,0.9573975,-0.0269165,-0.0513916,0.2828979,0.0000000,0.0000000,0.0000000
9.8988,0.0039062,0.0253906,0.0000000,0.9573975,-0.0269165,-0.0513916,0.2828979,0.0000000,0.0000000,0.0000000
9.9040,-0.0039062,-0.0019531,0.0000000,0.9573975,-0.0269165,-0.0513916,0.2828979,0.0000000,0.0000000,0.0000000
9.9092,0.0000000,-0.0136719,0.0117188,0.9573975,-0.0269165,-0.0513916,0.2828979,0.0000000,0.0000000,0.0000000
9.9130,0.0078125,0.0136719,0.0390625,0.9573975,-0.0269165,-0.0513916,0.2828979,0.0000000,0.0000000,0.0000000
9.9175,0.0039062,0.0058594,0.0390625,0.9573975,-0.0269165,-0.0513916,0.2828979,0.0000000,0.0000000,0.0000000
9.9240,-0.0078125,-0.0449219,-0.0156250,0.9573975,-0.0269165,-0.0513916,0.2828979,0.0000000,0.0000000,0.0000000
9.9292,0.0312500,-0.0019531,-0.0390625,0.9573975,-0.0269165,-0.0513916,0.2828979,0.0000000,0.0000000,0.0000000
9.9330,-0.0039062,-0.0019531,0.0195312,0.9573975,-0.0269165,-0.0513916,0.2828979,0.0000000,0.0000000,0.0000000
9.9375,0.0312500,0.0175781,-0.0078125,0.9573975,-0.0269165,-0.0513916,0.2828979,0.0000000,0.0000000,0.0000000
9.9440,0.0078125,0.0097656,0.0312500,0.9573975,-0.0269165,-0.0513916,0.2828979,0.0000000,0.0000000,0.0000000
9.9492,-0.0117188,0.0175781,-0.0078125,0.9573975,-0.0269165,-0.0513916,0.2828979,0.0000000,0.0000000,0.0000000
9.9530,0.0156250,0.0058594,0.0312500,0.9573975,-0.0269165,-0.0513916,0.2828979,0.0000000,0.0000000,0.0000000
9.9575,-0.0078125,0.0058594,-0.0195312,0.9573975,-0.0269165,-0.0513916,0.2828979,0.0000000,0.0000000,0.0000000
9.9640,0.0234375,0.0019531,0.0390625,0.9573975,-0.0269165,-0.0513916,0.2828979,0.0000000,0.0000000,0.0000000
9.9692,-0.0078125,-0.0175781,-0.0195312,0.9573975,-0.0269165,-0.0513916,0.2828979,0.0000000,0.0000000,0.0000000
9.9732,0.0078125,0.0097656,0.0468750,0.9573975,-0.0269165,-0.0513916,0.2828979,0.0000000,0.0000000,0.0000000
9.9775,0.0039062,0.0097656,-0.0273438,0.9573975,-0.0269165,-0.0513916,0.2828979,0.0000000,0.0000000,0.0000000
9.9838,-0.0039062,-0.0058594,-0.0195312,0.9573975,-0.0269165,-0.0513916,0.2828979,0.0000000,0.0000000,0.0000000
9.9892,0.0117188,-0.0019531,0.0117188,0.9573975,-0.0269165,-0.0513916,0.2828979,0.0000000,0.0000000,0.0000000
9.9930,0.0000000,0.0371094,0.0000000,0.9573975,-0.0269165,-0.0513916,0.2828979,0.0000000,0.0000000,0.0000000
9.9975,-0.0117188,-0.0253906,-0.0078125,0.9573975,-0.0269165,-0.0513916,0.2828979,0.0000000,0.0000000,0.0000000
10.0038,-0.0312500,-0.0136719,-0.0273438,0.9573975,-0.0269165,-0.0513916,0.2828979,0.0000000,0.0000000,0.0000000
10.0092,-0.0117188,-0.0253906,0.0117188,0.9573975,-0.0269165,-0.0513916,0.2828979,0.0000000,0.0000000,0.0000000
10.0134,-0.0234375,0.0136719,0.0390625,0.9573975,-0.0269165,-0.0513916,0.2828979,0.0000000,0.0000000,0.0000000
10.0175,-0.0156250,0.0097656,0.0117188,0.9573975,-0.0269165,-0.0513916,0.2828979,0.0000000,0.0000000,0.0000000
10.0232,-0.0156250,-0.0097656,-0.0156250,0.9573975,-0.0269165,-0.0513916,0.2828979,0.0000000,0.0000000,0.0000000
10.0292,-0.0078125,-0.0175781,0.0000000,0.9573975,-0.0269165,-0.0513916,0.2828979,0.0000000,0.0000000,0.0000000
10.0332,0.0039062,0.0019531,0.0312500,0.9573975,-0.0269165,-0.0513916,0.2828979,0.0000000,0.0000000,0.0000000
10.0375,-0.0156250,0.0097656,0.0195312,0.9573975,-0.0269165,-0.0513916,0.2828979,0.0000000,0.0000000,0.0000000
10.0432,0.0117188,-0.0175781,-0.0078125,0.9573975,-0.0269165,-0.0513916,0.2828979,0.0000000,0.0000000,0.0000000
10.0492,-0.0195312,0.0019531,-0.0273438,0.9573975,-0.0269165,-0.0513916,0.2828979,0.0000000,0.0000000,0.0000000
10.0532,0.0156250,0.0058594,0.0000000,0.9573975,-0.0269165,-0.0513916,0.2828979,0.0000000,0.0000000,0.0000000
10.0573,-0.0039062,-0.0058594,-0.0078125,0.9573975,-0.0269165,-0.0513916,0.2828979,0.0000000,0.0000000,0.0000000
10.0638,0.0078125,0.0097656,0.0195312,0.9573975,-0.0269165,-0.0513916,0.2828979,0.0000000,0.0000000,0.0000000
10.0692,-0.0390625,-0.0097656,-0.0156250,0.9573975,-0.0269165,-0.0513916,0.2828979,0.0000000,0.0000000,0.0000000
10.0732,0.0000000,0.0019531,-0.0273438,0.9573975,-0.0269165,-0.0513916,0.2828979,0.0000000,0.0000000,0.0000000
10.0775,-0.0078125,0.0058594,0.0117188,0.9573975,-0.0269165,-0.0513916,0.2828979,0.0000000,0.0000000,0.0000000
10.0832,-0.0156250,-0.0097656,-0.0156250,0.9573975,-0.0269165,-0.0513916,0.2828979,0.0000000,0.0000000,0.0000000
10.0892,-0.0429688,0.0019531,0.0039062,0.9573975,-0.0269165,-0.0513916,0.2828979,0.0000000,0.0000000,0.0000000
10.0964,0.0195312,0.0136719,-0.0273438,0.9573975,-0.0269165,-0.0513916,0.2828979,0.0000000,0.0000000,0.0000000
10.0983,0.0195312,0.0136719,-0.0273438,0.9573975,-0.0269165,-0.0513916,0.2828979,0.0000000,0.0000000,0.0000000
10.1040,-0.0273438,0.0058594,-0.0156250,0.9573975,-0.0269165,-0.0513916,0.2828979,0.0000000,0.0000000,0.0000000
10.1092,-0.0117188,0.0175781,0.0000000,0.9573975,-0.0269165,-0.0513916,0.2828979,0.0000000,0.0000000,0.0000000
10.1130,0.0078125,0.0097656,0.0000000,0.9573975,-0.0269165,-0.0513916,0.2828979,0.0000000,0.0000000,0.0000000
10.1177,0.0390625,0.0253906,0.0000000,0.9573975,-0.0269165,-0.0514526,0.2828979,0.0000000,0.0000000,0.0000000
10.1234,0.0234375,0.0214844,-0.0078125,0.9573975,-0.0269165,-0.0514526,0.2828979,0.0000000,0.0000000,0.0000000
10.1292,-0.0312500,-0.0019531,0.0312500,0.9573975,-0.0269165,-0.0514526,0.2828979,0.0000000,0.0000000,0.0000000
10.1338,0.0156250,0.0058594,0.0390625,0.9573975,-0.0269165,-0.0514526,0.2828979,0.0000000,0.0000000,0.0000000
10.1373,0.0000000,0.0019531,0.0117188,0.9573975,-0.0269165,-0.0514526,0.2828979,0.0000000,0.0000000,0.0000000
10.1433,-0.0117188,-0.0019531,0.0000000,0.9573975,-0.0269165,-0.0514526,0.2828979,0.0000000,0.0000000,0.0000000
10.1488,0.0156250,0.0058594,0.0000000,0.9573975,-0.0269165,-0.0514526,0.2828979,0.0000000,0.0000000,0.0000000
10.1538,0.0273438,0.0097656,0.0078125,0.9573975,-0.0269165,-0.0514526,0.2828979,0.0000000,0.0000000,0.0000000
10.1585,0.0234375,-0.0019531,0.0117188,0.9573975,-0.0269165,-0.0514526,0.2828979,0.0000000,0.0000000,0.0000000
10.1634,-0.0078125,0.0058594,-0.0078125,0.9573975,-0.0269165,-0.0514526,0.2828979,0.0000000,0.0000000,0.0000000
10.1692,0.0117188,0.0175781,0.0117188,0.9573975,-0.0269165,-0.0514526,0.2828979,0.0000000,0.0000000,0.0000000
10.1740,-0.0156250,0.0332031,-0.0078125,0.9573975,-0.0268555,-0.0514526,0.2828979,0.0000000,0.0000000,0.0000000
10.1787,-0.0195312,0.0019531,0.0312500,0.9573975,-0.0268555,-0.0514526,0.2828979,0.0000000,0.0000000,0.0000000
10.1834,-0.0117188,-0.0019531,0.0195312,0.9573975,-0.0268555,-0.0514526,0.2828979,0.0000000,0.0000000,0.0000000
10.1892,-0.0273438,-0.0292969,0.0039062,0.9573975,-0.0268555,-0.0514526,0.2828979,0.0000000,0.0000000,0.0000000
10.1940,-0.0195312,0.0019531,0.0195312,0.9573975,-0.0268555,-0.0514526,0.2828979,0.0000000,0.0000000,0.0000000
10.1975,-0.0195312,0.0019531,-0.0273438,0.9573975,-0.0268555,-0.0514526,0.2828979,0.0000000,0.0000000,0.0000000
10.2034,-0.0039062,-0.0058594,-0.0195312,0.9573975,-0.0268555,-0.0514526,0.2828979,0.0000000,0.0000000,0.0000000
10.2092,-0.0312500,0.0214844,-0.0156250,0.9573975,-0.0268555,-0.0514526,0.2828979,0.0000000,0.0000000,0.0000000
10.2138,-0.0117188,0.0175781,0.0117188,0.9573975,-0.0268555,-0.0514526,0.2828979,0.0000000,0.0000000,0.0000000
10.2175,0.0117188,0.0175781,-0.0078125,0.9573975,-0.0268555,-0.0514526,0.2828979,0.0000000,0.0000000,0.0000000
10.2234,0.0195312,-0.0214844,-0.0195312,0.9573975,-0.0268555,-0.0514526,0.2828979,0.0000000,0.0000000,0.0000000
10.2292,0.0312500,-0.0058594,0.0078125,0.9573975,-0.0268555,-0.0514526,0.2828979,0.0000000,0.0000000,0.0000000
10.2338,0.0117188,-0.0253906,0.0312500,0.9573975,-0.0268555,-0.0514526,0.2828979,0.0000000,0.0000000,0.0000000
10.2377,0.0078125,0.0292969,0.0117188,0.9573975,-0.0268555,-0.0514526,0.2828979,0.0000000,0.0000000,0.0000000
10.2434,0.0117188,-0.0019531,0.0000000,0.9573975,-0.0268555,-0.0514526,0.2828979,0.0000000,0.0000000,0.0000000
10.2492,0.0117188,0.0175781,-0.0195312,0.9573975,-0.0268555,-0.0514526,0.2828979,0.0000000,0.0000000,0.0000000
10.2538,0.0000000,0.0136719,0.0312500,0.9573975,-0.0268555,-0.0514526,0.2828979,0.0000000,0.0000000,0.0000000
10.2575,-0.0039062,-0.0058594,0.0000000,0.9573975,-0.0268555,-0.0514526,0.2828979,0.0000000,0.0000000,0.0000000
10.2630,0.0039062,0.0019531,0.0390625,0.9573975,-0.0268555,-0.0514526,0.2828979,0.0000000,0.0000000,0.0000000
10.2692,-0.0039062,0.0175781,0.0117188,0.9573975,-0.0268555,-0.0514526,0.2828979,0.0000000,0.0000000,0.0000000
10.2738,0.0039062,-0.0214844,0.0117188,0.9573975,-0.0268555,-0.0514526,0.2828979,0.0000000,0.0000000,0.0000000
10.2777,-0.0234375,-0.0136719,0.0117188,0.9573975,-0.0268555,-0.0514526,0.2828979,0.0000000,0.0000000,0.0000000
10.2834,-0.0273438,0.0214844,0.0390625,0.9573975,-0.0268555,-0.0514526,0.2828979,0.0000000,0.0000000,0.0000000
10.2892,-0.0234375,0.0058594,0.0000000,0.9573975,-0.0268555,-0.0514526,0.2828979,0.0000000,0.0000000,0.0000000
10.2942,0.0000000,-0.0488281,0.0195312,0.9573975,-0.0268555,-0.0514526,0.2828979,0.0000000,0.0000000,0.0000000
10.2985,0.0000000,-0.0058594,0.0000000,0.9573975,-0.0268555,-0.0514526,0.2828979,0.0000000,0.0000000,0.0000000
10.3032,0.0312500,-0.0332031,0.0117188,0.9573975,-0.0268555,-0.0514526,0.2828979,0.0000000,0.0000000,0.0000000
10.3092,-0.0156250,0.0019531,-0.0195312,0.9573975,-0.0268555,-0.0514526,0.2828979,0.0000000,0.0000000,0.0000000
10.3164,0.0000000,-0.0058594,-0.0078125,0.9573975,-0.0268555,-0.0514526,0.2828979,0.0000000,0.0000000,0.0000000
10.3213,0.0273438,0.0019531,0.0078125,0.9573975,-0.0268555,-0.0514526,0.2828979,0.0000000,0.0000000,0.0000000
10.4230,-0.0195312,0.0136719,-0.0078125,0.9573975,-0.0268555,-0.0514526,0.2828979,0.0000000,0.0000000,0.0000000
10.4490,-0.0195312,0.0136719,-0.0078125,0.9573975,-0.0268555,-0.0514526,0.2828979,0.0000000,0.0000000,0.0000000
10.4534,0.0000000,-0.0292969,0.0312500,0.9573975,-0.0268555,-0.0514526,0.2828979,0.0000000,0.0000000,0.0000000
10.4580,0.0117188,0.0097656,0.0468750,0.9573975,-0.0268555,-0.0514526,0.2828979,0.0000000,0.0000000,0.0000000
10.4632,0.0117188,0.0097656,0.0117188,0.9573975,-0.0268555,-0.0514526,0.2828979,0.0000000,0.0000000,0.0000000
10.4690,-0.0078125,-0.0214844,0.0507812,0.9573975,-0.0268555,-0.0514526,0.2828979,0.0000000,0.0000000,0.0000000
10.4727,0.0195312,-0.0371094,0.0585938,0.9573975,-0.0268555,-0.0514526,0.2828979,0.0000000,0.0000000,0.0000000
10.4778,-0.0078125,0.0332031,-0.0078125,0.9573975,-0.0268555,-0.0514526,0.2828979,0.0000000,0.0000000,0.0000000
10.4834,0.0273438,0.0214844,-0.0195312,0.9573975,-0.0268555,-0.0514526,0.2828979,0.0000000,0.0000000,0.0000000
10.4892,0.0585938,-0.0175781,-0.0195312,0.9573975,-0.0268555,-0.0514526,0.2828979,0.0000000,0.0000000,0.0000000
10.4927,0.0156250,-0.0019531,-0.0273438,0.9573975,-0.0268555,-0.0514526,0.2828979,0.0000000,0.0000000,0.0000000
10.4978,-0.0117188,-0.0097656,0.0195312,0.9573975,-0.0268555,-0.0514526,0.2828979,0.0000000,0.0000000,0.0000000
10.5034,0.0195312,0.0058594,0.0000000,0.9573975,-0.0268555,-0.0514526,0.2828369,0.0000000,0.0000000,0.0000000
10.5090,0.0351562,-0.0058594,0.0078125,0.9573975,-0.0268555,-0.0514526,0.2828369,0.0000000,0.0000000,0.0000000
10.5128,0.0078125,-0.0097656,-0.0078125,0.9573975,-0.0268555,-0.0514526,0.2828369,0.0000000,0.0000000,0.0000000
10.5180,0.0078125,0.0019531,-0.0078125,0.9573975,-0.0268555,-0.0514526,0.2828369,0.0000000,0.0000000,0.0000000
10.5234,0.0273438,-0.0214844,0.0273438,0.9573975,-0.0268555,-0.0514526,0.2828369,0.0000000,0.0000000,0.0000000
10.5290,-0.0585938,-0.0175781,0.0507812,0.9573975,-0.0268555,-0.0514526,0.2828369,0.0000000,0.0000000,0.0000000
10.5364,-0.0351562,0.0097656,-0.0468750,0.9573975,-0.0268555,-0.0514526,0.2828369,0.0000000,0.0000000,0.0000000
10.5377,-0.0351562,0.0097656,-0.0468750,0.9573975,-0.0268555,-0.0514526,0.2828369,0.0000000,0.0000000,0.0000000
10.5432,-0.0156250,-0.0175781,0.0117188,0.9573975,-0.0268555,-0.0514526,0.2828369,0.0000000,0.0000000,0.0000000
10.5482,-0.0117188,-0.0097656,-0.0195312,0.9573975,-0.0268555,-0.0514526,0.2828369,0.0000000,0.0000000,0.0000000
10.5528,0.0078125,0.0019531,0.0195312,0.9573975,-0.0268555,-0.0514526,0.2828369,0.0000000,0.0000000,0.0000000
10.5580,0.0078125,-0.0136719,-0.0195312,0.9573975,-0.0268555,-0.0514526,0.2828369,0.0000000,0.0000000,0.0000000
10.5634,-0.0234375,-0.0136719,0.0000000,0.9573975,-0.0267944,-0.0514526,0.2828369,0.0000000,0.0000000,0.0000000
10.5682,-0.0234375,0.0058594,-0.0468750,0.9573975,-0.0267944,-0.0514526,0.2828369,0.0000000,0.0000000,0.0000000
10.5728,-0.0195312,-0.0253906,0.0117188,0.9573975,-0.0267944,-0.0514526,0.2828369,0.0000000,0.0000000,0.0000000
10.5786,-0.0273438,0.0214844,-0.0156250,0.9573975,-0.0267944,-0.0514526,0.2828369,0.0000000,0.0000000,0.0000000
10.5834,-0.0078125,-0.0019531,0.0117188,0.9573975,-0.0267944,-0.0514526,0.2828369,0.0000000,0.0000000,0.0000000
10.5882,-0.0351562,0.0019531,-0.0156250,0.9573975,-0.0267944,-0.0514526,0.2828369,0.0000000,0.0000000,0.0000000
10.5928,0.0273438,0.0019531,0.0195312,0.9573975,-0.0267944,-0.0514526,0.2828369,0.0000000,0.0000000,0.0000000
10.5984,-0.0156250,0.0019531,-0.0078125,0.9573975,-0.0267944,-0.0514526,0.2828369,0.0000000,0.0000000,0.0000000
10.6032,-0.0390625,-0.0175781,0.0039062,0.9573975,-0.0267944,-0.0514526,0.2828369,0.0000000,0.0000000,0.0000000
10.6082,-0.0546875,-0.0292969,0.0507812,0.9573975,-0.0267944,-0.0515137,0.2828369,0.0000000,0.0000000,0.0000000
10.6128,-0.0117188,-0.0097656,0.0507812,0.9573975,-0.0267944,-0.0515137,0.2828369,0.0000000,0.0000000,0.0000000
10.6186,-0.0234375,-0.0136719,0.0000000,0.9573975,-0.0267944,-0.0515137,0.2828369,0.0000000,0.0000000,0.0000000
10.6234,-0.0039062,-0.0136719,0.0312500,0.9573975,-0.0267944,-0.0515137,0.2828369,0.0000000,0.0000000,0.0000000
10.6282,-0.0039062,0.0058594,-0.0390625,0.9573975,-0.0267944,-0.0515137,0.2828369,0.0000000,0.0000000,0.0000000
10.6328,0.0234375,-0.0292969,-0.0078125,0.9573975,-0.0267944,-0.0515137,0.2828369,0.0000000,0.0000000,0.0000000
10.6386,0.0156250,-0.0019531,0.0195312,0.9573975,-0.0267944,-0.0515137,0.2828369,0.0000000,0.0000000,0.0000000
10.6434,0.0039062,-0.0214844,0.0000000,0.9573975,-0.0267944,-0.0515137,0.2828369,0.0000000,0.0000000,0.0000000
10.6487,-0.0078125,-0.0019531,-0.0351562,0.9573975,-0.0267944,-0.0515137,0.2828369,0.0000000,0.0000000,0.0000000
10.6523,0.0039062,-0.0214844,0.0117188,0.9573975,-0.0267944,-0.0515137,0.2828369,0.0000000,0.0000000,0.0000000
10.6578,0.0234375,0.0136719,0.0078125,0.9573975,-0.0267944,-0.0515137,0.2828369,0.0000000,0.0000000,0.0000000
10.6634,0.0039062,-0.0058594,0.0195312,0.9573975,-0.0267944,-0.0515137,0.2828369,0.0000000,0.0000000,0.0000000
10.6682,0.0507812,-0.0019531,0.0195312,0.9573975,-0.0267944,-0.0515137,0.2828369,0.0000000,0.0000000,0.0000000
10.6727,0.0273438,0.0019531,0.0195312,0.9573975,-0.0267944,-0.0515137,0.2828369,0.0000000,0.0000000,0.0000000
10.6784,0.0273438,0.0019531,0.0000000,0.9573975,-0.0267944,-0.0515137,0.2828369,0.0000000,0.0000000,0.0000000
10.6834,0.0195312,-0.0175781,0.0195312,0.9573975,-0.0267944,-0.0515137,0.2828369,0.0000000,0.0000000,0.0000000
10.6882,0.0078125,0.0214844,0.0117188,0.9573975,-0.0267944,-0.0515137,0.2828369,0.0000000,0.0000000,0.0000000
10.6928,0.0273438,0.0019531,0.0078125,0.9573975,-0.0267944,-0.0515137,0.2828369,0.0000000,0.0000000,0.0000000
10.6986,-0.0156250,0.0019531,0.0312500,0.9573975,-0.0267944,-0.0515137,0.2828369,0.0000000,0.0000000,0.0000000
10.7032,-0.0078125,-0.0019531,0.0000000,0.9573975,-0.0267944,-0.0515137,0.2828369,0.0000000,0.0000000,0.0000000
10.7082,0.0000000,0.0058594,0.0117188,0.9573975,-0.0267944,-0.0515137,0.2828369,0.0000000,0.0000000,0.0000000
10.7128,-0.0156250,0.0253906,-0.0078125,0.9573975,-0.0267944,-0.0515137,0.2828369,0.0000000,0.0000000,0.0000000
10.7184,-0.0039062,0.0058594,-0.0195312,0.9573975,-0.0267944,-0.0515137,0.2828369,0.0000000,0.0000000,0.0000000
10.7232,-0.0195312,0.0136719,-0.0273438,0.9573975,-0.0267944,-0.0515137,0.2828369,0.0000000,0.0000000,0.0000000
10.7282,-0.0156250,0.0019531,-0.0273438,0.9573975,-0.0267944,-0.0515137,0.2828369,0.0000000,0.0000000,0.0000000
10.7330,0.0039062,0.0019531,-0.0468750,0.9573975,-0.0267944,-0.0515137,0.2828369,0.0000000,0.0000000,0.0000000
10.7384,-0.0390625,-0.0058594,0.0312500,0.9573975,-0.0267944,-0.0515137,0.2828369,0.0000000,0.0000000,0.0000000
10.7432,-0.0546875,-0.0097656,0.0234375,0.9573975,-0.0267944,-0.0515137,0.2828369,0.0000000,0.0000000,0.0000000
10.7482,-0.0234375,0.0292969,0.0000000,0.9573975,-0.0267944,-0.0515137,0.2828369,0.0000000,0.0000000,0.0000000
10.7528,0.0117188,-0.0019531,-0.0468750,0.9573975,-0.0267944,-0.0515137,0.2828369,0.0000000,0.0000000,0.0000000
10.7584,-0.0507812,-0.0214844,0.0312500,0.9573975,-0.0267944,-0.0515137,0.2828369,0.0000000,0.0000000,0.0000000
10.7632,-0.0625000,0.0292969,0.0234375,0.9573975,-0.0267944,-0.0515137,0.2828369,0.0000000,0.0000000,0.0000000
10.7682,-0.0351562,-0.0292969,0.0234375,0.9573975,-0.0267944,-0.0515137,0.2828369,0.0000000,0.0000000,0.0000000
10.7728,-0.0195312,-0.0253906,0.0195312,0.9573975,-0.0267334,-0.0515137,0.2828369,0.0000000,0.0000000,0.0000000
10.7786,-0.0039062,-0.0136719,0.0000000,0.9573975,-0.0267334,-0.0515137,0.2828369,0.0000000,0.0000000,0.0000000
10.7834,0.0273438,0.0019531,0.0078125,0.9573975,-0.0267334,-0.0515137,0.2828369,0.0000000,0.0000000,0.0000000
10.7884,0.0273438,-0.0214844,0.0117188,0.9573975,-0.0267334,-0.0515137,0.2828369,0.0000000,0.0000000,0.0000000
10.7927,0.0039062,-0.0410156,0.0195312,0.9573975,-0.0267334,-0.0515137,0.2828369,0.0000000,0.0000000,0.0000000
10.7982,0.0039062,0.0019531,-0.0273438,0.9573975,-0.0267334,-0.0515137,0.2828369,0.0000000,0.0000000,0.0000000
10.8032,0.0117188,-0.0253906,-0.0078125,0.9573975,-0.0267334,-0.0515137,0.2828369,0.0000000,0.0000000,0.0000000
10.8084,-0.0156250,-0.0175781,0.0000000,0.9573975,-0.0267334,-0.0515137,0.2828369,0.0000000,0.0000000,0.0000000
10.8130,-0.0078125,-0.0214844,0.0312500,0.9573975,-0.0267334,-0.0515137,0.2828369,0.0000000,0.0000000,0.0000000
10.8182,0.0234375,0.0136719,-0.0273438,0.9573975,-0.0267334,-0.0515137,0.2828369,0.0000000,0.0000000,0.0000000
10.8232,0.0117188,0.0097656,0.0117188,0.9573975,-0.0267334,-0.0515137,0.2828369,0.0000000,0.0000000,0.0000000
10.8284,-0.0312500,-0.0097656,0.0039062,0.9573975,-0.0267334,-0.0515137,0.2828369,0.0000000,0.0000000,0.0000000
10.8332,-0.0351562,0.0019531,0.0195312,0.9573975,-0.0267334,-0.0515137,0.2828369,0.0000000,0.0000000,0.0000000
10.8382,-0.0390625,0.0019531,-0.0351562,0.9573975,-0.0267334,-0.0515137,0.2828369,0.0000000,0.0000000,0.0000000
10.8432,-0.0117188,0.0097656,-0.0351562,0.9573975,-0.0267334,-0.0515137,0.2828369,0.0000000,0.0000000,0.0000000
10.8484,0.0000000,-0.0019531,0.0195312,0.9573975,-0.0267334,-0.0515137,0.2828369,0.0000000,0.0000000,0.0000000
10.8527,0.0117188,0.0136719,0.0195312,0.9573975,-0.0267334,-0.0515137,0.2828369,0.0000000,0.0000000,0.0000000
10.8582,-0.0117188,0.0136719,0.0000000,0.9573975,-0.0267334,-0.0515137,0.2828369,0.0000000,0.0000000,0.0000000
10.8628,-0.0234375,-0.0214844,-0.0156250,0.9573975,-0.0267334,-0.0515137,0.2828369,0.0000000,0.0000000,0.0000000
10.8682,-0.0156250,-0.0136719,-0.0273438,0.9573975,-0.0267334,-0.0515137,0.2828369,0.0000000,0.0000000,0.0000000
10.8725,0.0429688,-0.0058594,0.0000000,0.9573975,-0.0267334,-0.0515137,0.2828369,0.0000000,0.0000000,0.0000000
10.8780,0.0234375,0.0175781,0.0000000,0.9573975,-0.0267334,-0.0515137,0.2828369,0.0000000,0.0000000,0.0000000
10.8830,-0.0117188,-0.0058594,0.0195312,0.9573975,-0.0267334,-0.0515137,0.2828369,0.0000000,0.0000000,0.0000000
10.8880,-0.0234375,0.0136719,0.0117188,0.9573975,-0.0267334,-0.0515137,0.2828369,0.0000000,0.0000000,0.0000000
10.8925,-0.0195312,0.0410156,-0.0195312,0.9573975,-0.0267334,-0.0515137,0.2828369,0.0000000,0.0000000,0.0000000
10.8981,0.0039062,0.0058594,0.0000000,0.9573975,-0.0267334,-0.0515137,0.2828369,0.0000000,0.0000000,0.0000000
10.9031,0.0312500,-0.0058594,0.0195312,0.9573975,-0.0267334,-0.0515137,0.2828369,0.0000000,0.0000000,0.0000000
10.9720,0.0234375,-0.0253906,0.0390625,0.9573975,-0.0267334,-0.0515137,0.2828369,0.0000000,0.0000000,0.0000000
10.9932,0.0234375,-0.0253906,0.0390625,0.9573975,-0.0267334,-0.0514526,0.2828369,0.0000000,0.0000000,0.0000000
10.9982,0.0195312,0.0097656,-0.0273438,0.9573975,-0.0267334,-0.0514526,0.2828369,0.0000000,0.0000000,0.0000000
11.0030,0.0312500,-0.0097656,-0.0078125,0.9573975,-0.0267334,-0.0514526,0.2828369,0.0000000,0.0000000,0.0000000
11.0084,0.0039062,-0.0019531,0.0312500,0.9573975,-0.0267334,-0.0514526,0.2828369,0.0000000,0.0000000,0.0000000
11.0130,0.0000000,-0.0253906,0.0000000,0.9573975,-0.0267334,-0.0514526,0.2828369,0.0000000,0.0000000,0.0000000
11.0175,0.0195312,0.0097656,0.0117188,0.9573975,-0.0267334,-0.0514526,0.2828369,0.0000000,0.0000000,0.0000000
11.0230,0.0039062,0.0058594,0.0000000,0.9573975,-0.0267334,-0.0514526,0.2828369,0.0000000,0.0000000,0.0000000
11.0284,0.0351562,-0.0214844,0.0117188,0.9573975,-0.0267334,-0.0514526,0.2828369,0.0000000,0.0000000,0.0000000
11.0330,0.0117188,0.0136719,-0.0078125,0.9573975,-0.0267334,-0.0514526,0.2828369,0.0000000,0.0000000,0.0000000
11.0373,0.0039062,-0.0136719,-0.0195312,0.9573975,-0.0267334,-0.0514526,0.2828369,0.0000000,0.0000000,0.0000000
11.0428,0.0312500,-0.0097656,0.0000000,0.9573975,-0.0267334,-0.0514526,0.2828369,0.0000000,0.0000000,0.0000000
11.0482,0.0117188,0.0136719,-0.0078125,0.9573975,-0.0267334,-0.0514526,0.2828369,0.0000000,0.0000000,0.0000000
11.0530,0.0039062,-0.0136719,0.0000000,0.9573975,-0.0267334,-0.0514526,0.2828369,0.0000000,0.0000000,0.0000000
11.0575,0.0351562,-0.0214844,-0.0273438,0.9573975,-0.0267334,-0.0514526,0.2828369,0.0000000,0.0000000,0.0000000
11.0630,-0.0156250,-0.0136719,0.0000000,0.9573975,-0.0267334,-0.0514526,0.2828369,0.0000000,0.0000000,0.0000000
11.0684,0.0156250,0.0019531,-0.0078125,0.9573975,-0.0267334,-0.0514526,0.2828369,0.0000000,0.0000000,0.0000000
11.0730,-0.0273438,0.0019531,0.0117188,0.9573975,-0.0267334,-0.0514526,0.2828369,0.0000000,0.0000000,0.0000000
11.0775,0.0039062,-0.0136719,0.0117188,0.9573975,-0.0267334,-0.0514526,0.2828369,0.0000000,0.0000000,0.0000000
11.0830,-0.0156250,0.0058594,-0.0156250,0.9573975,-0.0267334,-0.0514526,0.2828369,0.0000000,0.0000000,0.0000000
11.0884,0.0078125,-0.0058594,-0.0078125,0.9573975,-0.0267334,-0.0514526,0.2828369,0.0000000,0.0000000,0.0000000
11.0932,-0.0195312,0.0214844,0.0507812,0.9573975,-0.0267334,-0.0514526,0.2828979,0.0000000,0.0000000,0.0000000
11.0967,0.0078125,-0.0488281,-0.0351562,0.9573975,-0.0267334,-0.0514526,0.2828979,0.0000000,0.0000000,0.0000000
11.1030,0.0078125,-0.0292969,0.0117188,0.9573975,-0.0267334,-0.0514526,0.2828979,0.0000000,0.0000000,0.0000000
11.1084,0.0234375,-0.0253906,0.0195312,0.9573975,-0.0267334,-0.0514526,0.2828979,0.0000000,0.0000000,0.0000000
11.1130,-0.0039062,0.0097656,0.0000000,0.9573975,-0.0267334,-0.0514526,0.2828979,0.0000000,0.0000000,0.0000000
11.1177,0.0156250,0.0019531,0.0312500,0.9573975,-0.0267334,-0.0514526,0.2828979,0.0000000,0.0000000,0.0000000
11.1230,0.0312500,-0.0292969,0.0000000,0.9573975,-0.0267334,-0.0514526,0.2828979,0.0000000,0.0000000,0.0000000
11.1284,-0.0078125,-0.0175781,0.0195312,0.9573975,-0.0267334,-0.0514526,0.2828979,0.0000000,0.0000000,0.0000000
11.1330,-0.0273438,0.0058594,0.0312500,0.9573975,-0.0267334,-0.0514526,0.2828979,0.0000000,0.0000000,0.0000000
11.1377,-0.0195312,-0.0214844,0.0039062,0.9573975,-0.0267334,-0.0514526,0.2828979,0.0000000,0.0000000,0.0000000
11.1428,0.0156250,-0.0214844,0.0195312,0.9573975,-0.0267334,-0.0514526,0.2828979,0.0000000,0.0000000,0.0000000
11.1484,0.0390625,-0.0136719,0.0195312,0.9573975,-0.0267334,-0.0514526,0.2828979,0.0000000,0.0000000,0.0000000
11.1530,0.0234375,-0.0019531,0.0312500,0.9573975,-0.0267334,-0.0514526,0.2828979,0.0000000,0.0000000,0.0000000
11.1578,-0.0039062,-0.0097656,0.0117188,0.9573975,-0.0267334,-0.0514526,0.2828979,0.0000000,0.0000000,0.0000000
11.1623,-0.0078125,0.0019531,0.0000000,0.9573975,-0.0267334,-0.0514526,0.2828979,0.0000000,0.0000000,0.0000000
11.1680,0.0078125,0.0292969,-0.0195312,0.9573975,-0.0267334,-0.0514526,0.2828979,0.0000000,0.0000000,0.0000000
11.1730,-0.0156250,0.0058594,-0.0078125,0.9573975,-0.0267334,-0.0514526,0.2828979,0.0000000,0.0000000,0.0000000
11.1767,0.0312500,-0.0097656,-0.0273438,0.9573975,-0.0267334,-0.0514526,0.2828979,0.0000000,0.0000000,0.0000000
11.1828,-0.0078125,0.0019531,0.0117188,0.9573975,-0.0267334,-0.0514526,0.2828979,0.0000000,0.0000000,0.0000000
11.1882,0.0117188,-0.0214844,0.0000000,0.9573975,-0.0267334,-0.0514526,0.2828979,0.0000000,0.0000000,0.0000000
11.1930,0.0273438,0.0058594,0.0195312,0.9573975,-0.0267334,-0.0514526,0.2828979,0.0000000,0.0000000,0.0000000
11.1967,-0.0429688,-0.0058594,-0.0351562,0.9573975,-0.0267334,-0.0514526,0.2828979,0.0000000,0.0000000,0.0000000
11.2030,-0.0117188,-0.0097656,-0.0078125,0.9573975,-0.0267334,-0.0514526,0.2828979,0.0000000,0.0000000,0.0000000
11.2084,-0.0195312,0.0175781,0.0117188,0.9573975,-0.0267334,-0.0514526,0.2828979,0.0000000,0.0000000,0.0000000
11.2130,-0.0156250,0.0019531,0.0312500,0.9573975,-0.0267334,-0.0514526,0.2828979,0.0000000,0.0000000,0.0000000
11.2177,0.0195312,0.0058594,-0.0078125,0.9573975,-0.0266724,-0.0514526,0.2828979,0.0000000,0.0000000,0.0000000
11.2228,-0.0039062,-0.0136719,0.0195312,0.9573975,-0.0266724,-0.0514526,0.2828979,0.0000000,0.0000000,0.0000000
11.2284,-0.0195312,-0.0058594,0.0000000,0.9573975,-0.0266724,-0.0514526,0.2828979,0.0000000,0.0000000,0.0000000
11.2332,0.0234375,-0.0097656,-0.0195312,0.9573975,-0.0266724,-0.0514526,0.2828979,0.0000000,0.0000000,0.0000000
11.2375,0.0195312,-0.0371094,0.0195312,0.9573975,-0.0266724,-0.0514526,0.2828979,0.0000000,0.0000000,0.0000000
11.2430,0.0195312,-0.0175781,0.0390625,0.9573975,-0.0266724,-0.0514526,0.2828979,0.0000000,0.0000000,0.0000000
11.2482,0.0000000,-0.0058594,0.0117188,0.9573975,-0.0266724,-0.0514526,0.2828979,0.0000000,0.0000000,0.0000000
11.2530,0.0117188,-0.0097656,0.0000000,0.9573975,-0.0266724,-0.0514526,0.2828979,0.0000000,0.0000000,0.0000000
11.2577,-0.0195312,0.0488281,0.0312500,0.9573975,-0.0266724,-0.0514526,0.2828979,0.0000000,0.0000000,0.0000000
11.2623,-0.0117188,-0.0097656,-0.0195312,0.9573975,-0.0266724,-0.0514526,0.2828979,0.0000000,0.0000000,0.0000000
11.2680,0.0117188,-0.0253906,-0.0273438,0.9573975,-0.0266724,-0.0514526,0.2828979,0.0000000,0.0000000,0.0000000
11.2730,0.0117188,0.0097656,-0.0195312,0.9573975,-0.0266724,-0.0514526,0.2828979,0.0000000,0.0000000,0.0000000
11.2777,-0.0156250,-0.0175781,0.0195312,0.9573975,-0.0266724,-0.0514526,0.2828979,0.0000000,0.0000000,0.0000000
11.3080,-0.0117188,-0.0097656,0.0390625,0.9573975,-0.0266724,-0.0514526,0.2828979,0.0000000,0.0000000,0.0000000
11.3182,-0.0390625,0.0175781,-0.0078125,0.9573975,-0.0266724,-0.0514526,0.2828979,0.0000000,0.0000000,0.0000000
11.3220,-0.0078125,-0.0019531,-0.0078125,0.9573975,-0.0266724,-0.0514526,0.2828979,0.0000000,0.0000000,0.0000000
11.3275,-0.0156250,0.0019531,0.0312500,0.9573975,-0.0266724,-0.0514526,0.2828979,0.0000000,0.0000000,0.0000000
11.3330,-0.0312500,0.0136719,-0.0078125,0.9573975,-0.0266724,-0.0514526,0.2828979,0.0000000,0.0000000,0.0000000
11.3382,0.0078125,0.0019531,-0.0078125,0.9573975,-0.0266724,-0.0514526,0.2828979,0.0000000,0.0000000,0.0000000
11.3420,-0.0156250,0.0019531,0.0000000,0.9573975,-0.0266724,-0.0514526,0.2828979,0.0000000,0.0000000,0.0000000
11.3475,0.0000000,-0.0058594,-0.0078125,0.9573975,-0.0266724,-0.0514526,0.2828979,0.0000000,0.0000000,0.0000000
11.3530,0.0195312,0.0253906,-0.0195312,0.9573975,-0.0266724,-0.0514526,0.2828979,0.0000000,0.0000000,0.0000000
11.3582,0.0078125,0.0019531,0.0195312,0.9573975,-0.0266724,-0.0514526,0.2828979,0.0000000,0.0000000,0.0000000
11.3628,0.0078125,0.0019531,0.0312500,0.9573975,-0.0266724,-0.0514526,0.2828979,0.0000000,0.0000000,0.0000000
11.3678,-0.0039062,-0.0136719,0.0117188,0.9573975,-0.0266724,-0.0514526,0.2828979,0.0000000,0.0000000,0.0000000
11.3732,0.0117188,-0.0097656,0.0390625,0.9573975,-0.0266724,-0.0514526,0.2828979,0.0000000,0.0000000,0.0000000
11.3784,0.0195312,-0.0175781,0.0312500,0.9573975,-0.0266724,-0.0514526,0.2828979,0.0000000,0.0000000,0.0000000
11.3822,0.0273438,0.0019531,0.0390625,0.9573975,-0.0266724,-0.0514526,0.2828979,0.0000000,0.0000000,0.0000000
11.3875,-0.0078125,0.0332031,0.0195312,0.9573975,-0.0266724,-0.0514526,0.2828979,0.0000000,0.0000000,0.0000000
11.3928,0.0000000,0.0292969,0.0117188,0.9573975,-0.0266724,-0.0514526,0.2828979,0.0000000,0.0000000,0.0000000
11.3982,0.0195312,0.0253906,-0.0390625,0.9573975,-0.0266724,-0.0514526,0.2828979,0.0000000,0.0000000,0.0000000
11.4020,0.0078125,0.0019531,0.0195312,0.9573975,-0.0266724,-0.0514526,0.2828979,0.0000000,0.0000000,0.0000000
11.4075,0.0039062,0.0136719,-0.0195312,0.9573975,-0.0266724,-0.0514526,0.2828979,0.0000000,0.0000000,0.0000000
11.4130,0.0000000,0.0058594,0.0312500,0.9573975,-0.0266724,-0.0514526,0.2828979,0.0000000,0.0000000,0.0000000
11.4182,-0.0117188,-0.0097656,-0.0078125,0.9573975,-0.0266724,-0.0514526,0.2828979,0.0000000,0.0000000,0.0000000
11.4225,0.0039062,0.0136719,-0.0195312,0.9573975,-0.0266724,-0.0514526,0.2828979,0.0000000,0.0000000,0.0000000
11.4273,-0.0156250,0.0019531,0.0117188,0.9573975,-0.0266724,-0.0514526,0.2828979,0.0000000,0.0000000,0.0000000
11.4330,-0.0390625,0.0175781,0.0117188,0.9573975,-0.0266724,-0.0514526,0.2828979,0.0000000,0.0000000,0.0000000
11.4382,-0.0234375,0.0058594,0.0117188,0.9573975,-0.0266724,-0.0514526,0.2828979,0.0000000,0.0000000,0.0000000
11.4422,-0.0117188,-0.0097656,0.0117188,0.9573975,-0.0266724,-0.0514526,0.2828979,0.0000000,0.0000000,0.0000000
11.4465,-0.0117188,0.0097656,-0.0351562,0.9573975,-0.0266724,-0.0514526,0.2828979,0.0000000,0.0000000,0.0000000
11.4532,-0.0156250,0.0019531,-0.0078125,0.9573975,-0.0266724,-0.0514526,0.2828979,0.0000000,0.0000000,0.0000000
11.4582,-0.0312500,0.0136719,0.0117188,0.9573975,-0.0266724,-0.0514526,0.2829590,0.0000000,0.0000000,0.0000000
11.4622,0.0000000,-0.0058594,-0.0078125,0.9573975,-0.0266724,-0.0514526,0.2829590,0.0000000,0.0000000,0.0000000
11.4663,-0.0195312,-0.0058594,-0.0351562,0.9573975,-0.0266724,-0.0514526,0.2829590,0.0000000,0.0000000,0.0000000
11.4725,-0.0351562,-0.0292969,0.0117188,0.9573975,-0.0266724,-0.0514526,0.2829590,0.0000000,0.0000000,0.0000000
11.4775,-0.0156250,-0.0175781,0.0117188,0.9573975,-0.0266724,-0.0514526,0.2829590,0.0000000,0.0000000,0.0000000
11.4875,0.0117188,-0.0253906,0.0000000,0.9573975,-0.0266724,-0.0514526,0.2829590,0.0000000,0.0000000,0.0000000
11.5480,0.0078125,-0.0058594,0.0117188,0.9573975,-0.0266724,-0.0514526,0.2829590,0.0000000,0.0000000,0.0000000
11.5730,0.0078125,-0.0058594,0.0117188,0.9573975,-0.0266724,-0.0514526,0.2829590,0.0000000,0.0000000,0.0000000
11.5782,-0.0156250,0.0058594,0.0117188,0.9573975,-0.0266724,-0.0514526,0.2829590,0.0000000,0.0000000,0.0000000
11.5828,0.0117188,0.0136719,0.0312500,0.9573975,-0.0266724,-0.0514526,0.2829590,0.0000000,0.0000000,0.0000000
11.5872,0.0312500,0.0136719,0.0390625,0.9573975,-0.0266724,-0.0514526,0.2829590,0.0000000,0.0000000,0.0000000
11.5930,0.0078125,-0.0292969,0.0195312,0.9573975,-0.0266724,-0.0514526,0.2829590,0.0000000,0.0000000,0.0000000
11.5980,0.0078125,-0.0292969,0.0117188,0.9573975,-0.0266724,-0.0514526,0.2829590,0.0000000,0.0000000,0.0000000
11.6028,0.0000000,0.0175781,-0.0078125,0.9573975,-0.0266724,-0.0514526,0.2829590,0.0000000,0.0000000,0.0000000
11.6070,0.0312500,-0.0097656,-0.0390625,0.9573975,-0.0266724,-0.0514526,0.2829590,0.0000000,0.0000000,0.0000000
11.6132,-0.0546875,0.0175781,0.0039062,0.9573975,-0.0266724,-0.0514526,0.2829590,0.0000000,0.0000000,0.0000000
11.6180,-0.0117188,-0.0253906,0.0195312,0.9573975,-0.0266724,-0.0514526,0.2829590,0.0000000,0.0000000,0.0000000
11.6230,0.0351562,-0.0214844,-0.0078125,0.9573975,-0.0266724,-0.0514526,0.2829590,0.0000000,0.0000000,0.0000000
11.6270,0.0156250,0.0019531,0.0195312,0.9573975,-0.0266724,-0.0514526,0.2829590,0.0000000,0.0000000,0.0000000
11.6332,0.0507812,0.0253906,0.0078125,0.9573975,-0.0266724,-0.0514526,0.2829590,0.0000000,0.0000000,0.0000000
11.6382,0.0195312,0.0097656,0.0390625,0.9573975,-0.0266724,-0.0514526,0.2829590,0.0000000,0.0000000,0.0000000
11.6430,0.0351562,0.0019531,0.0078125,0.9573975,-0.0266724,-0.0514526,0.2829590,0.0000000,0.0000000,0.0000000
11.6470,0.0039062,-0.0136719,0.0195312,0.9573975,-0.0266724,-0.0514526,0.2829590,0.0000000,0.0000000,0.0000000
11.6534,-0.0039062,0.0097656,0.0000000,0.9573975,-0.0266724,-0.0514526,0.2829590,0.0000000,0.0000000,0.0000000
11.6582,0.0078125,-0.0058594,0.0117188,0.9573975,-0.0266724,-0.0514526,0.2829590,0.0000000,0.0000000,0.0000000
11.6630,-0.0312500,-0.0410156,-0.0039062,0.9573975,-0.0266724,-0.0514526,0.2829590,0.0000000,0.0000000,0.0000000
11.6670,0.0195312,-0.0253906,-0.0351562,0.9573975,-0.0266724,-0.0514526,0.2829590,0.0000000,0.0000000,0.0000000
11.6787,-0.0156250,0.0058594,0.0117188,0.9573975,-0.0266724,-0.0514526,0.2829590,0.0000000,0.0000000,0.0000000
11.6828,-0.0078125,0.0019531,-0.0273438,0.9573975,-0.0266724,-0.0514526,0.2829590,0.0000000,0.0000000,0.0000000
11.6870,0.0039062,-0.0371094,-0.0195312,0.9573975,-0.0266724,-0.0514526,0.2829590,0.0000000,0.0000000,0.0000000
11.6934,0.0039062,-0.0136719,0.0117188,0.9573975,-0.0266724,-0.0514526,0.2829590,0.0000000,0.0000000,0.0000000
11.6980,-0.0039062,0.0253906,0.0117188,0.9573975,-0.0266724,-0.0514526,0.2829590,0.0000000,0.0000000,0.0000000
11.7028,0.0273438,0.0253906,-0.0078125,0.9573975,-0.0266724,-0.0514526,0.2829590,0.0000000,0.0000000,0.0000000
11.7070,0.0078125,-0.0136719,0.0507812,0.9573975,-0.0266724,-0.0514526,0.2829590,0.0000000,0.0000000,0.0000000
11.7132,0.0117188,-0.0058594,0.0390625,0.9573975,-0.0266724,-0.0514526,0.2829590,0.0000000,0.0000000,0.0000000
11.7182,0.0078125,-0.0058594,-0.0390625,0.9573975,-0.0266724,-0.0514526,0.2829590,0.0000000,0.0000000,0.0000000
11.7230,0.0273438,0.0253906,-0.0078125,0.9573975,-0.0266724,-0.0514526,0.2829590,0.0000000,0.0000000,0.0000000
11.7277,-0.0156250,0.0058594,0.0000000,0.9573975,-0.0266724,-0.0514526,0.2829590,0.0000000,0.0000000,0.0000000
11.7322,0.0351562,-0.0214844,-0.0195312,0.9573975,-0.0266724,-0.0514526,0.2829590,0.0000000,0.0000000,0.0000000
11.7380,0.0000000,-0.0019531,0.0000000,0.9573975,-0.0266724,-0.0514526,0.2829590,0.0000000,0.0000000,0.0000000
11.7432,0.0273438,0.0253906,0.0000000,0.9573975,-0.0266724,-0.0514526,0.2829590,0.0000000,0.0000000,0.0000000
11.7470,0.0000000,0.0175781,-0.0078125,0.9573975,-0.0266724,-0.0514526,0.2829590,0.0000000,0.0000000,0.0000000
11.7534,0.0234375,-0.0019531,0.0390625,0.9573975,-0.0266724,-0.0514526,0.2829590,0.0000000,0.0000000,0.0000000
11.7578,-0.0195312,-0.0214844,0.0312500,0.9573975,-0.0266724,-0.0514526,0.2829590,0.0000000,0.0000000,0.0000000
11.7630,-0.0039062,-0.0136719,0.0000000,0.9573975,-0.0266724,-0.0514526,0.2829590,0.0000000,0.0000000,0.0000000
11.7670,-0.0039062,-0.0136719,0.0000000,0.9573975,-0.0266724,-0.0514526,0.2829590,0.0000000,0.0000000,0.0000000
11.7732,-0.0273438,-0.0019531,0.0195312,0.9573975,-0.0266724,-0.0514526,0.2829590,0.0000000,0.0000000,0.0000000
11.7778,0.0039062,-0.0214844,-0.0195312,0.9573975,-0.0266724,-0.0514526,0.2829590,0.0000000,0.0000000,0.0000000
11.7828,-0.0195312,-0.0058594,0.0117188,0.9573975,-0.0266724,-0.0514526,0.2829590,0.0000000,0.0000000,0.0000000
11.7872,-0.0273438,-0.0136719,-0.0351562,0.9573975,-0.0266724,-0.0514526,0.2829590,0.0000000,0.0000000,0.0000000
11.7934,0.0312500,0.0097656,-0.0195312,0.9573975,-0.0266724,-0.0514526,0.2829590,0.0000000,0.0000000,0.0000000
11.7978,0.0039062,-0.0058594,0.0195312,0.9573975,-0.0266724,-0.0514526,0.2829590,0.0000000,0.0000000,0.0000000
11.8032,-0.0117188,-0.0097656,-0.0195312,0.9573975,-0.0266724,-0.0514526,0.2829590,0.0000000,0.0000000,0.0000000
11.8070,-0.0039062,0.0175781,0.0117188,0.9573975,-0.0266724,-0.0514526,0.2829590,0.0000000,0.0000000,0.0000000
11.8134,-0.0195312,0.0136719,-0.0078125,0.9573975,-0.0266724,-0.0514526,0.2829590,0.0000000,0.0000000,0.0000000
11.8178,-0.0039062,0.0058594,-0.0078125,0.9573975,-0.0266724,-0.0514526,0.2829590,0.0000000,0.0000000,0.0000000
11.8232,0.0117188,-0.0097656,0.0195312,0.9573975,-0.0266724,-0.0514526,0.2829590,0.0000000,0.0000000,0.0000000
11.8272,0.0273438,0.0019531,0.0195312,0.9573975,-0.0266724,-0.0514526,0.2829590,0.0000000,0.0000000,0.0000000
11.8334,-0.0156250,0.0019531,0.0000000,0.9573975,-0.0266724,-0.0514526,0.2829590,0.0000000,0.0000000,0.0000000
11.8378,-0.0351562,0.0019531,0.0117188,0.9573975,-0.0266724,-0.0514526,0.2829590,0.0000000,0.0000000,0.0000000
11.8430,-0.0234375,-0.0136719,-0.0273438,0.9573975,-0.0266113,-0.0514526,0.2829590,0.0000000,0.0000000,0.0000000
11.8472,-0.0039062,-0.0136719,0.0000000,0.9573975,-0.0266113,-0.0514526,0.2829590,0.0000000,0.0000000,0.0000000
11.8534,-0.0234375,-0.0488281,-0.0078125,0.9573975,-0.0266113,-0.0514526,0.2829590,0.0000000,0.0000000,0.0000000
11.8577,-0.0039062,-0.0019531,0.0507812,0.9573975,-0.0266113,-0.0514526,0.2829590,0.0000000,0.0000000,0.0000000
11.8630,0.0156250,-0.0019531,0.0000000,0.9573975,-0.0266113,-0.0514526,0.2829590,0.0000000,0.0000000,0.0000000
11.8672,0.0156250,-0.0019531,0.0000000,0.9573975,-0.0266113,-0.0514526,0.2829590,0.0000000,0.0000000,0.0000000
11.8734,0.0156250,-0.0019531,-0.0078125,0.9573975,-0.0266113,-0.0514526,0.2829590,0.0000000,0.0000000,0.0000000
11.8777,-0.0156250,0.0371094,0.0117188,0.9573975,-0.0266113,-0.0514526,0.2829590,0.0000000,0.0000000,0.0000000
11.8830,0.0234375,-0.0292969,0.0117188,0.9573975,-0.0266113,-0.0514526,0.2829590,0.0000000,0.0000000,0.0000000
11.8870,0.0195312,-0.0175781,-0.0078125,0.9573975,-0.0266113,-0.0514526,0.2829590,0.0000000,0.0000000,0.0000000
11.8932,-0.0273438,-0.0214844,0.0312500,0.9573975,-0.0266113,-0.0514526,0.2829590,0.0000000,0.0000000,0.0000000
11.8978,0.0078125,0.0019531,0.0000000,0.9573975,-0.0266113,-0.0514526,0.2829590,0.0000000,0.0000000,0.0000000
11.9032,-0.0078125,-0.0019531,0.0117188,0.9573975,-0.0266113,-0.0514526,0.2829590,0.0000000,0.0000000,0.0000000
11.9072,0.0117188,0.0097656,-0.0195312,0.9573975,-0.0266113,-0.0514526,0.2829590,0.0000000,0.0000000,0.0000000
11.9124,0.0000000,-0.0058594,0.0117188,0.9573975,-0.0266113,-0.0514526,0.2830200,0.0000000,0.0000000,0.0000000
11.9178,-0.0195312,-0.0253906,0.0195312,0.9573975,-0.0266113,-0.0514526,0.2830200,0.0000000,0.0000000,0.0000000
11.9222,-0.0078125,-0.0019531,0.0195312,0.9573975,-0.0266113,-0.0514526,0.2830200,0.0000000,0.0000000,0.0000000
11.9270,0.0039062,-0.0058594,0.0195312,0.9573975,-0.0266113,-0.0514526,0.2830200,0.0000000,0.0000000,0.0000000
11.9350,0.0039062,-0.0214844,0.0117188,0.9573975,-0.0266113,-0.0514526,0.2830200,0.0000000,0.0000000,0.0000000
11.9384,0.0078125,0.0214844,0.0195312,0.9573975,-0.0266113,-0.0514526,0.2830200,0.0000000,0.0000000,0.0000000
11.9424,-0.0273438,-0.0019531,0.0195312,0.9573975,-0.0266113,-0.0514526,0.2830200,0.0000000,0.0000000,0.0000000
11.9470,-0.0234375,-0.0136719,-0.0078125,0.9573975,-0.0266113,-0.0514526,0.2830200,0.0000000,0.0000000,0.0000000
11.9524,-0.0078125,-0.0253906,0.0000000,0.9573975,-0.0266113,-0.0514526,0.2830200,0.0000000,0.0000000,0.0000000
11.9568,-0.0234375,0.0058594,0.0000000,0.9573364,-0.0266113,-0.0514526,0.2830200,0.0000000,0.0000000,0.0000000
11.9630,-0.0195312,-0.0058594,0.0117188,0.9573364,-0.0266113,-0.0514526,0.2830200,0.0000000,0.0000000,0.0000000
11.9672,-0.0039062,0.0175781,0.0117188,0.9573364,-0.0266113,-0.0514526,0.2830200,0.0000000,0.0000000,0.0000000
11.9724,0.0234375,-0.0097656,0.0000000,0.9573364,-0.0266113,-0.0514526,0.2830200,0.0000000,0.0000000,0.0000000
11.9778,-0.0273438,-0.0019531,0.0117188,0.9573364,-0.0266113,-0.0514526,0.2830200,0.0000000,0.0000000,0.0000000
11.9832,-0.0117188,0.0097656,0.0117188,0.9573364,-0.0266113,-0.0514526,0.2830200,0.0000000,0.0000000,0.0000000
11.9870,-0.0156250,0.0019531,0.0000000,0.9573364,-0.0266113,-0.0514526,0.2830200,0.0000000,0.0000000,0.0000000
11.9924,-0.0078125,0.0332031,0.0312500,0.9573364,-0.0266113,-0.0514526,0.2830200,0.0000000,0.0000000,0.0000000
11.9977,-0.0351562,-0.0097656,-0.0156250,0.9573364,-0.0266113,-0.0514526,0.2830200,0.0000000,0.0000000,0.0000000
12.0020,0.0000000,-0.0488281,0.0117188,0.9573364,-0.0266113,-0.0514526,0.2830200,0.0000000,0.0000000,0.0000000
12.0070,-0.0234375,0.0058594,0.0195312,0.9573364,-0.0266113,-0.0514526,0.2830200,0.0000000,0.0000000,0.0000000
12.0120,0.0234375,-0.0019531,0.0117188,0.9573364,-0.0266113,-0.0514526,0.2830200,0.0000000,0.0000000,0.0000000
12.0165,-0.0039062,-0.0097656,0.0000000,0.9573364,-0.0266113,-0.0514526,0.2830200,0.0000000,0.0000000,0.0000000
12.0227,0.0156250,-0.0136719,-0.0273438,0.9573364,-0.0266113,-0.0514526,0.2830200,0.0000000,0.0000000,0.0000000
12.0273,-0.0117188,-0.0058594,0.0000000,0.9573364,-0.0266113,-0.0514526,0.2830200,0.0000000,0.0000000,0.0000000
12.0950,-0.0195312,-0.0058594,0.0312500,0.9573364,-0.0266113,-0.0514526,0.2830200,0.0000000,0.0000000,0.0000000
12.1180,-0.0195312,-0.0058594,0.0312500,0.9573364,-0.0266113,-0.0514526,0.2830200,0.0000000,0.0000000,0.0000000
12.1222,0.0156250,-0.0253906,0.0195312,0.9573364,-0.0266113,-0.0514526,0.2830200,0.0000000,0.0000000,0.0000000
12.1269,0.0117188,-0.0253906,0.0000000,0.9573364,-0.0266113,-0.0514526,0.2830200,0.0000000,0.0000000,0.0000000
12.1317,-0.0117188,-0.0097656,-0.0195312,0.9573364,-0.0266113,-0.0514526,0.2830200,0.0000000,0.0000000,0.0000000
12.1380,0.0000000,-0.0292969,0.0195312,0.9573364,-0.0266113,-0.0514526,0.2830200,0.0000000,0.0000000,0.0000000
12.1422,-0.0195312,-0.0058594,0.0000000,0.9573364,-0.0266113,-0.0514526,0.2830200,0.0000000,0.0000000,0.0000000
12.1475,0.0078125,-0.0097656,-0.0078125,0.9573364,-0.0266113,-0.0514526,0.2830200,0.0000000,0.0000000,0.0000000
12.1520,-0.0117188,0.0097656,0.0000000,0.9573364,-0.0266113,-0.0514526,0.2830200,0.0000000,0.0000000,0.0000000
12.1572,0.0156250,-0.0019531,0.0117188,0.9573364,-0.0266113,-0.0514526,0.2830200,0.0000000,0.0000000,0.0000000
12.1622,0.0117188,-0.0097656,0.0117188,0.9573364,-0.0266113,-0.0514526,0.2830200,0.0000000,0.0000000,0.0000000
12.1675,0.0117188,-0.0253906,-0.0195312,0.9573364,-0.0266113,-0.0514526,0.2830200,0.0000000,0.0000000,0.0000000
12.1720,0.0117188,-0.0019531,-0.0468750,0.9573364,-0.0266113,-0.0514526,0.2830200,0.0000000,0.0000000,0.0000000
12.1772,0.0078125,0.0019531,-0.0078125,0.9573364,-0.0266113,-0.0514526,0.2830200,0.0000000,0.0000000,0.0000000
12.1822,-0.0039062,-0.0136719,-0.0273438,0.9573364,-0.0266113,-0.0514526,0.2830200,0.0000000,0.0000000,0.0000000
12.1875,-0.0117188,-0.0097656,-0.0078125,0.9573364,-0.0266113,-0.0514526,0.2830200,0.0000000,0.0000000,0.0000000
12.1927,-0.0078125,-0.0019531,0.0000000,0.9573364,-0.0266113,-0.0514526,0.2830200,0.0000000,0.0000000,0.0000000
12.1974,-0.0039062,-0.0136719,0.0312500,0.9573364,-0.0266113,-0.0514526,0.2830200,0.0000000,0.0000000,0.0000000
12.2022,0.0234375,-0.0058594,0.0195312,0.9573364,-0.0266113,-0.0514526,0.2830200,0.0000000,0.0000000,0.0000000
12.2065,0.0390625,-0.0175781,-0.0273438,0.9573364,-0.0266113,-0.0514526,0.2830200,0.0000000,0.0000000,0.0000000
12.2120,-0.0078125,0.0332031,-0.0078125,0.9573364,-0.0266113,-0.0514526,0.2830200,0.0000000,0.0000000,0.0000000
12.2170,-0.0156250,0.0019531,0.0312500,0.9573364,-0.0266113,-0.0514526,0.2830200,0.0000000,0.0000000,0.0000000
12.2220,-0.0039062,-0.0136719,0.0117188,0.9573364,-0.0266113,-0.0514526,0.2830200,0.0000000,0.0000000,0.0000000
12.2265,0.0195312,-0.0175781,0.0195312,0.9573364,-0.0266113,-0.0514526,0.2830200,0.0000000,0.0000000,0.0000000
12.2320,0.0234375,-0.0097656,-0.0195312,0.9573364,-0.0266113,-0.0514526,0.2830200,0.0000000,0.0000000,0.0000000
12.2370,0.0351562,-0.0253906,-0.0195312,0.9573364,-0.0266113,-0.0514526,0.2830200,0.0000000,0.0000000,0.0000000
12.2422,-0.0195312,-0.0058594,0.0195312,0.9573364,-0.0266113,-0.0514526,0.2830200,0.0000000,0.0000000,0.0000000
12.2473,0.0078125,0.0019531,0.0000000,0.9573364,-0.0266113,-0.0514526,0.2830200,0.0000000,0.0000000,0.0000000
12.2518,-0.0117188,-0.0097656,-0.0078125,0.9573364,-0.0266113,-0.0514526,0.2830200,0.0000000,0.0000000,0.0000000
12.2570,0.0000000,-0.0058594,-0.0078125,0.9573364,-0.0266113,-0.0514526,0.2830200,0.0000000,0.0000000,0.0000000
12.2622,0.0195312,0.0253906,0.0195312,0.9573364,-0.0266113,-0.0514526,0.2830200,0.0000000,0.0000000,0.0000000
12.2665,0.0156250,-0.0019531,0.0195312,0.9573364,-0.0266113,-0.0514526,0.2830200,0.0000000,0.0000000,0.0000000
12.2720,0.0273438,-0.0019531,-0.0664062,0.9573364,-0.0266113,-0.0514526,0.2830200,0.0000000,0.0000000,0.0000000
12.2770,-0.0195312,-0.0253906,0.0117188,0.9573364,-0.0266113,-0.0514526,0.2830200,0.0000000,0.0000000,0.0000000
12.2820,-0.0156250,-0.0175781,0.0000000,0.9573364,-0.0266113,-0.0514526,0.2830200,0.0000000,0.0000000,0.0000000
12.2875,0.0000000,0.0058594,0.0312500,0.9573364,-0.0266113,-0.0514526,0.2830200,0.0000000,0.0000000,0.0000000
12.2920,-0.0234375,-0.0136719,0.0000000,0.9573364,-0.0266113,-0.0514526,0.2830200,0.0000000,0.0000000,0.0000000
12.2972,-0.0234375,-0.0136719,0.0507812,0.9573364,-0.0266113,-0.0514526,0.2830200,0.0000000,0.0000000,0.0000000
12.3022,-0.0156250,-0.0175781,0.0000000,0.9573364,-0.0266113,-0.0514526,0.2830200,0.0000000,0.0000000,0.0000000
12.3073,-0.0039062,0.0058594,-0.0195312,0.9573364,-0.0266113,-0.0514526,0.2830200,0.0000000,0.0000000,0.0000000
12.3120,-0.0078125,0.0175781,-0.0273438,0.9573364,-0.0266113,-0.0514526,0.2830200,0.0000000,0.0000000,0.0000000
12.3172,0.0000000,-0.0058594,-0.0273438,0.9573364,-0.0266113,-0.0514526,0.2830200,0.0000000,0.0000000,0.0000000
12.3220,-0.0312500,0.0136719,0.0195312,0.9573364,-0.0266113,-0.0514526,0.2830200,0.0000000,0.0000000,0.0000000
12.3263,-0.0390625,-0.0410156,-0.0156250,0.9573364,-0.0266113,-0.0514526,0.2830200,0.0000000,0.0000000,0.0000000
12.3320,-0.0195312,0.0136719,-0.0078125,0.9573364,-0.0266113,-0.0514526,0.2830200,0.0000000,0.0000000,0.0000000
12.3370,-0.0468750,0.0214844,0.0312500,0.9573364,-0.0266113,-0.0514526,0.2830200,0.0000000,0.0000000,0.0000000
12.3420,0.0078125,-0.0332031,0.0117188,0.9573364,-0.0266113,-0.0514526,0.2830200,0.0000000,0.0000000,0.0000000
12.3475,-0.0273438,0.0214844,-0.0078125,0.9573364,-0.0266113,-0.0514526,0.2830200,0.0000000,0.0000000,0.0000000
12.3520,-0.0273438,-0.0214844,0.0117188,0.9573364,-0.0266113,-0.0514526,0.2830200,0.0000000,0.0000000,0.0000000
12.3570,-0.0117188,-0.0332031,-0.0078125,0.9573364,-0.0266113,-0.0514526,0.2830200,0.0000000,0.0000000,0.0000000
12.3620,-0.0195312,-0.0058594,0.0000000,0.9573364,-0.0266113,-0.0515137,0.2830200,0.0000000,0.0000000,0.0000000
12.3663,-0.0078125,0.0175781,-0.0195312,0.9573364,-0.0266113,-0.0515137,0.2830200,0.0000000,0.0000000,0.0000000
12.3720,-0.0156250,-0.0175781,-0.0156250,0.9573364,-0.0266113,-0.0515137,0.2830200,0.0000000,0.0000000,0.0000000
12.3772,0.0039062,-0.0214844,0.0117188,0.9573364,-0.0266113,-0.0515137,0.2830200,0.0000000,0.0000000,0.0000000
12.3822,0.0156250,-0.0019531,0.0000000,0.9573364,-0.0266113,-0.0515137,0.2830200,0.0000000,0.0000000,0.0000000
12.3863,0.0000000,-0.0058594,0.0000000,0.9573364,-0.0266113,-0.0515137,0.2830200,0.0000000,0.0000000,0.0000000
12.3920,0.0351562,-0.0253906,-0.0078125,0.9573364,-0.0266113,-0.0515137,0.2830200,0.0000000,0.0000000,0.0000000
12.3972,-0.0195312,-0.0488281,0.0195312,0.9573364,-0.0266113,-0.0515137,0.2830200,0.0000000,0.0000000,0.0000000
12.4020,-0.0117188,-0.0097656,0.0195312,0.9573364,-0.0266113,-0.0515137,0.2830200,0.0000000,0.0000000,0.0000000
12.4063,-0.0078125,-0.0253906,-0.0078125,0.9573364,-0.0266113,-0.0515137,0.2830200,0.0000000,0.0000000,0.0000000
12.4118,-0.0117188,-0.0253906,0.0000000,0.9573364,-0.0266113,-0.0515137,0.2830200,0.0000000,0.0000000,0.0000000
12.4172,-0.0117188,-0.0019531,0.0390625,0.9573364,-0.0266113,-0.0515137,0.2830200,0.0000000,0.0000000,0.0000000
12.4220,-0.0234375,-0.0058594,0.0312500,0.9573364,-0.0266113,-0.0515137,0.2830200,0.0000000,0.0000000,0.0000000
12.4263,-0.0039062,-0.0058594,-0.0078125,0.9573364,-0.0266113,-0.0515137,0.2830200,0.0000000,0.0000000,0.0000000
12.4320,-0.0078125,-0.0371094,0.0312500,0.9573364,-0.0266113,-0.0515137,0.2830200,0.0000000,0.0000000,0.0000000
12.4374,0.0039062,-0.0058594,-0.0195312,0.9573364,-0.0266113,-0.0515137,0.2830200,0.0000000,0.0000000,0.0000000
12.4419,0.0078125,-0.0214844,0.0312500,0.9573364,-0.0266113,-0.0515137,0.2830200,0.0000000,0.0000000,0.0000000
12.4483,0.0117188,0.0214844,0.0117188,0.9573364,-0.0266113,-0.0515137,0.2830200,0.0000000,0.0000000,0.0000000
12.4539,0.0117188,-0.0136719,-0.0078125,0.9573364,-0.0266113,-0.0515137,0.2830200,0.0000000,0.0000000,0.0000000
12.4573,0.0117188,-0.0136719,-0.0078125,0.9573364,-0.0266113,-0.0515137,0.2830200,0.0000000,0.0000000,0.0000000
12.4620,0.0195312,0.0058594,-0.0390625,0.9573364,-0.0266113,-0.0515137,0.2830200,0.0000000,0.0000000,0.0000000
12.4672,0.0039062,-0.0058594,-0.0351562,0.9573364,-0.0266113,-0.0515137,0.2830200,0.0000000,0.0000000,0.0000000
12.4722,0.0585938,-0.0058594,-0.0117188,0.9573364,-0.0266113,-0.0515137,0.2830200,0.0000000,0.0000000,0.0000000
12.4772,0.0039062,0.0253906,0.0117188,0.9573364,-0.0266113,-0.0515137,0.2830200,0.0000000,0.0000000,0.0000000
12.4822,0.0156250,0.0097656,0.0195312,0.9573364,-0.0266113,-0.0515137,0.2830200,0.0000000,0.0000000,0.0000000
12.4863,-0.0078125,0.0097656,0.0000000,0.9573364,-0.0266113,-0.0515137,0.2830200,0.0000000,0.0000000,0.0000000
12.4918,0.0078125,0.0019531,0.0117188,0.9573364,-0.0266113,-0.0515137,0.2830200,0.0000000,0.0000000,0.0000000
12.4974,-0.0117188,0.0019531,-0.0156250,0.9573364,-0.0266113,-0.0515137,0.2830200,0.0000000,0.0000000,0.0000000
12.5022,-0.0078125,0.0097656,0.0000000,0.9573364,-0.0266113,-0.0515137,0.2830200,0.0000000,0.0000000,0.0000000
12.5063,0.0078125,-0.0214844,0.0000000,0.9573364,-0.0266113,-0.0515137,0.2830200,0.0000000,0.0000000,0.0000000
12.5120,0.0078125,0.0214844,-0.0390625,0.9573364,-0.0266113,-0.0515137,0.2830200,0.0000000,0.0000000,0.0000000
12.5174,0.0078125,0.0019531,-0.0195312,0.9573364,-0.0266113,-0.0515137,0.2830200,0.0000000,0.0000000,0.0000000
12.5220,-0.0039062,0.0410156,-0.0195312,0.9573364,-0.0266113,-0.0515137,0.2830200,0.0000000,0.0000000,0.0000000
12.5265,-0.0078125,-0.0097656,0.0195312,0.9573364,-0.0266113,-0.0515137,0.2830200,0.0000000,0.0000000,0.0000000
12.5320,-0.0039062,0.0175781,0.0117188,0.9573364,-0.0266113,-0.0515137,0.2830200,0.0000000,0.0000000,0.0000000
12.5374,-0.0078125,0.0097656,-0.0468750,0.9573364,-0.0266113,-0.0515137,0.2830200,0.0000000,0.0000000,0.0000000
12.5420,0.0078125,-0.0214844,-0.0195312,0.9573364,-0.0266113,-0.0515137,0.2830200,0.0000000,0.0000000,0.0000000
12.5465,0.0000000,-0.0175781,-0.0273438,0.9573364,-0.0266113,-0.0515137,0.2830200,0.0000000,0.0000000,0.0000000
12.5518,-0.0039062,0.0175781,-0.0195312,0.9573364,-0.0266113,-0.0515137,0.2830200,0.0000000,0.0000000,0.0000000
12.5574,0.0039062,-0.0058594,0.0117188,0.9573364,-0.0266113,-0.0515137,0.2830811,0.0000000,0.0000000,0.0000000
12.5620,-0.0078125,-0.0097656,-0.0078125,0.9573364,-0.0266113,-0.0515137,0.2830811,0.0000000,0.0000000,0.0000000
12.5692,0.0039062,-0.0058594,-0.0078125,0.9573364,-0.0266113,-0.0514526,0.2830811,0.0000000,0.0000000,0.0000000
12.5741,0.0078125,-0.0214844,-0.0195312,0.9573364,-0.0266113,-0.0514526,0.2830811,0.0000000,0.0000000,0.0000000
12.6390,0.0312500,-0.0214844,0.0390625,0.9573364,-0.0266113,-0.0514526,0.2830811,0.0000000,0.0000000,0.0000000
12.6574,0.0312500,-0.0214844,0.0390625,0.9573364,-0.0266113,-0.0514526,0.2830811,0.0000000,0.0000000,0.0000000
12.6620,0.0312500,-0.0214844,0.0390625,0.9573364,-0.0266113,-0.0514526,0.2830811,0.0000000,0.0000000,0.0000000
12.6672,-0.0234375,0.0214844,-0.0078125,0.9573364,-0.0266113,-0.0514526,0.2830811,0.0000000,0.0000000,0.0000000
12.6715,0.0156250,-0.0136719,0.0312500,0.9573364,-0.0266113,-0.0514526,0.2830811,0.0000000,0.0000000,0.0000000
12.6770,0.0429688,0.0175781,0.0273438,0.9573364,-0.0266113,-0.0514526,0.2830811,0.0000000,0.0000000,0.0000000
12.6820,0.0039062,-0.0292969,0.0117188,0.9573364,-0.0266113,-0.0514526,0.2830811,0.0000000,0.0000000,0.0000000
12.6872,0.0117188,0.0019531,0.0507812,0.9573364,-0.0266113,-0.0514526,0.2830811,0.0000000,0.0000000,0.0000000
12.6915,-0.0312500,-0.0332031,0.0039062,0.9573364,-0.0266113,-0.0514526,0.2830811,0.0000000,0.0000000,0.0000000
12.6973,-0.0195312,-0.0292969,0.0039062,0.9573364,-0.0266113,-0.0514526,0.2830811,0.0000000,0.0000000,0.0000000
12.7018,0.0078125,0.0019531,0.0000000,0.9573364,-0.0266113,-0.0514526,0.2830811,0.0000000,0.0000000,0.0000000
12.7072,0.0195312,0.0410156,0.0117188,0.9573364,-0.0266113,-0.0514526,0.2830811,0.0000000,0.0000000,0.0000000
12.7113,-0.0273438,-0.0214844,-0.0078125,0.9573364,-0.0266113,-0.0514526,0.2830811,0.0000000,0.0000000,0.0000000
12.7170,0.0156250,-0.0058594,-0.0195312,0.9573364,-0.0266113,-0.0514526,0.2830811,0.0000000,0.0000000,0.0000000
12.7220,0.0000000,-0.0136719,0.0195312,0.9573364,-0.0266113,-0.0514526,0.2830811,0.0000000,0.0000000,0.0000000
12.7272,0.0312500,-0.0214844,0.0195312,0.9573364,-0.0266113,-0.0514526,0.2830811,0.0000000,0.0000000,0.0000000
12.7315,-0.0039062,0.0175781,0.0117188,0.9573364,-0.0266113,-0.0514526,0.2830811,0.0000000,0.0000000,0.0000000
12.7370,-0.0117188,0.0214844,-0.0078125,0.9573364,-0.0266113,-0.0514526,0.2830811,0.0000000,0.0000000,0.0000000
12.7422,-0.0117188,-0.0175781,0.0117188,0.9573364,-0.0266113,-0.0514526,0.2830811,0.0000000,0.0000000,0.0000000
12.7472,0.0195312,-0.0019531,0.0312500,0.9573364,-0.0266113,-0.0514526,0.2830811,0.0000000,0.0000000,0.0000000
12.7513,0.0000000,-0.0175781,0.0000000,0.9573364,-0.0266113,-0.0514526,0.2830811,0.0000000,0.0000000,0.0000000
12.7570,-0.0117188,-0.0332031,-0.0273438,0.9573364,-0.0266113,-0.0514526,0.2830811,0.0000000,0.0000000,0.0000000
12.7620,0.0000000,-0.0175781,0.0000000,0.9573364,-0.0266113,-0.0514526,0.2830811,0.0000000,0.0000000,0.0000000
12.7672,0.0000000,-0.0136719,0.0117188,0.9573364,-0.0266113,-0.0514526,0.2830811,0.0000000,0.0000000,0.0000000
12.7713,-0.0039062,-0.0019531,0.0195312,0.9573364,-0.0266113,-0.0514526,0.2830811,0.0000000,0.0000000,0.0000000
12.7770,0.0156250,0.0097656,0.0117188,0.9573364,-0.0266113,-0.0514526,0.2830811,0.0000000,0.0000000,0.0000000
12.7820,0.0000000,0.0058594,0.0195312,0.9573364,-0.0266724,-0.0514526,0.2830811,0.0000000,0.0000000,0.0000000
12.7870,0.0156250,-0.0058594,-0.0195312,0.9573364,-0.0266724,-0.0514526,0.2830811,0.0000000,0.0000000,0.0000000
12.7913,0.0273438,0.0136719,-0.0078125,0.9573364,-0.0266724,-0.0514526,0.2830811,0.0000000,0.0000000,0.0000000
12.7970,0.0117188,-0.0136719,-0.0078125,0.9573364,-0.0266724,-0.0514526,0.2830811,0.0000000,0.0000000,0.0000000
12.8020,0.0039062,-0.0058594,0.0195312,0.9573364,-0.0266724,-0.0514526,0.2830811,0.0000000,0.0000000,0.0000000
12.8072,-0.0039062,-0.0019531,0.0117188,0.9573364,-0.0266724,-0.0514526,0.2830811,0.0000000,0.0000000,0.0000000
12.8115,0.0273438,0.0136719,-0.0390625,0.9573364,-0.0266724,-0.0514526,0.2830811,0.0000000,0.0000000,0.0000000
12.8170,0.0351562,0.0097656,-0.0273438,0.9573364,-0.0266724,-0.0514526,0.2830811,0.0000000,0.0000000,0.0000000
12.8220,0.0039062,0.0292969,0.0390625,0.9573364,-0.0266724,-0.0514526,0.2830811,0.0000000,0.0000000,0.0000000
12.8272,0.0000000,-0.0214844,0.0000000,0.9573364,-0.0266724,-0.0514526,0.2830811,0.0000000,0.0000000,0.0000000
12.8315,-0.0429688,0.0019531,0.0039062,0.9573364,-0.0266724,-0.0514526,0.2830811,0.0000000,0.0000000,0.0000000
12.8370,-0.0273438,0.0058594,-0.0156250,0.9573364,-0.0266724,-0.0514526,0.2830811,0.0000000,0.0000000,0.0000000
12.8420,-0.0039062,0.0058594,0.0507812,0.9573364,-0.0266724,-0.0514526,0.2830811,0.0000000,0.0000000,0.0000000
12.8467,0.0078125,-0.0136719,0.0195312,0.9573364,-0.0266724,-0.0514526,0.2830811,0.0000000,0.0000000,0.0000000
12.8511,0.0000000,-0.0214844,-0.0195312,0.9573364,-0.0266724,-0.0514526,0.2830811,0.0000000,0.0000000,0.0000000
12.8568,0.0000000,0.0019531,-0.0078125,0.9573364,-0.0266724,-0.0514526,0.2830811,0.0000000,0.0000000,0.0000000
12.8620,0.0000000,0.0214844,-0.0390625,0.9573364,-0.0266724,-0.0514526,0.2830811,0.0000000,0.0000000,0.0000000
12.8672,0.0273438,0.0097656,-0.0195312,0.9573364,-0.0266724,-0.0514526,0.2830811,0.0000000,0.0000000,0.0000000
12.8713,0.0195312,0.0136719,-0.0390625,0.9573364,-0.0266724,-0.0514526,0.2830811,0.0000000,0.0000000,0.0000000
12.8772,0.0234375,0.0214844,-0.0664062,0.9573364,-0.0266724,-0.0514526,0.2830811,0.0000000,0.0000000,0.0000000
12.8820,-0.0039062,-0.0058594,0.0000000,0.9573364,-0.0266724,-0.0514526,0.2830811,0.0000000,0.0000000,0.0000000
12.8872,0.0273438,0.0097656,0.0078125,0.9573364,-0.0266724,-0.0514526,0.2830811,0.0000000,0.0000000,0.0000000
12.8915,0.0000000,0.0136719,0.0195312,0.9573364,-0.0266724,-0.0514526,0.2830811,0.0000000,0.0000000,0.0000000
12.8960,0.0468750,-0.0019531,0.0195312,0.9573364,-0.0266724,-0.0514526,0.2830811,0.0000000,0.0000000,0.0000000
12.9020,-0.0039062,-0.0292969,0.0312500,0.9573364,-0.0266724,-0.0514526,0.2830811,0.0000000,0.0000000,0.0000000
12.9072,0.0000000,0.0214844,-0.0273438,0.9573364,-0.0266724,-0.0514526,0.2830811,0.0000000,0.0000000,0.0000000
12.9117,-0.0039062,-0.0058594,-0.0195312,0.9573364,-0.0266724,-0.0515137,0.2830811,0.0000000,0.0000000,0.0000000
12.9170,0.0117188,-0.0019531,0.0117188,0.9573364,-0.0266724,-0.0515137,0.2830811,0.0000000,0.0000000,0.0000000
12.9220,-0.0351562,-0.0019531,-0.0156250,0.9573364,-0.0266724,-0.0515137,0.2830811,0.0000000,0.0000000,0.0000000
12.9272,-0.0117188,-0.0019531,-0.0078125,0.9573364,-0.0266724,-0.0515137,0.2830811,0.0000000,0.0000000,0.0000000
12.9315,-0.0312500,0.0214844,0.0312500,0.9573364,-0.0266724,-0.0515137,0.2830811,0.0000000,0.0000000,0.0000000
12.9370,-0.0429688,0.0175781,0.0312500,0.9573364,-0.0266724,-0.0515137,0.2830811,0.0000000,0.0000000,0.0000000
12.9422,-0.0078125,-0.0136719,0.0195312,0.9573364,-0.0266724,-0.0515137,0.2830811,0.0000000,0.0000000,0.0000000
12.9471,0.0117188,-0.0019531,0.0312500,0.9573364,-0.0266724,-0.0515137,0.2830811,0.0000000,0.0000000,0.0000000
12.9506,0.0156250,-0.0175781,0.0117188,0.9573364,-0.0266724,-0.0515137,0.2830811,0.0000000,0.0000000,0.0000000
12.9568,-0.0117188,0.0175781,0.0117188,0.9573364,-0.0266724,-0.0515137,0.2830811,0.0000000,0.0000000,0.0000000
12.9622,0.0078125,-0.0253906,-0.0273438,0.9573364,-0.0266724,-0.0515137,0.2830811,0.0000000,0.0000000,0.0000000
12.9670,0.0390625,-0.0292969,-0.0078125,0.9573364,-0.0266724,-0.0515137,0.2830811,0.0000000,0.0000000,0.0000000
12.9713,0.0078125,0.0097656,-0.0078125,0.9573364,-0.0266724,-0.0515137,0.2830811,0.0000000,0.0000000,0.0000000
12.9768,0.0156250,0.0253906,-0.0390625,0.9573364,-0.0266724,-0.0515137,0.2830811,0.0000000,0.0000000,0.0000000
12.9820,-0.0234375,0.0136719,-0.0156250,0.9573364,-0.0266724,-0.0515137,0.2830811,0.0000000,0.0000000,0.0000000
12.9870,0.0078125,-0.0253906,-0.0195312,0.9573364,-0.0266724,-0.0515137,0.2830811,0.0000000,0.0000000,0.0000000
12.9915,-0.0117188,0.0175781,0.0117188,0.9573364,-0.0266724,-0.0515137,0.2830811,0.0000000,0.0000000,0.0000000
12.9970,0.0117188,-0.0019531,0.0000000,0.9573364,-0.0266724,-0.0515137,0.2830811,0.0000000,0.0000000,0.0000000
13.0022,0.0039062,0.0097656,-0.0273438,0.9573364,-0.0266724,-0.0515137,0.2830811,0.0000000,0.0000000,0.0000000
13.0072,-0.0156250,-0.0097656,-0.0078125,0.9573364,-0.0266724,-0.0515137,0.2830811,0.0000000,0.0000000,0.0000000
13.0113,0.0000000,0.0136719,0.0117188,0.9573364,-0.0266724,-0.0515137,0.2830811,0.0000000,0.0000000,0.0000000
13.0170,-0.0234375,0.0136719,-0.0156250,0.9573364,-0.0266724,-0.0515137,0.2830811,0.0000000,0.0000000,0.0000000
13.0220,0.0039062,-0.0136719,0.0000000,0.9573364,-0.0266724,-0.0515137,0.2830811,0.0000000,0.0000000,0.0000000
13.0270,-0.0156250,0.0097656,-0.0195312,0.9573364,-0.0266724,-0.0515137,0.2830811,0.0000000,0.0000000,0.0000000
13.0315,-0.0234375,-0.0058594,0.0000000,0.9573364,-0.0266724,-0.0515137,0.2830811,0.0000000,0.0000000,0.0000000
13.0370,-0.0078125,0.0058594,0.0000000,0.9573364,-0.0266724,-0.0515137,0.2830811,0.0000000,0.0000000,0.0000000
13.0422,-0.0312500,-0.0019531,0.0039062,0.9573364,-0.0266724,-0.0515137,0.2830811,0.0000000,0.0000000,0.0000000
13.0472,0.0039062,0.0214844,0.0468750,0.9573364,-0.0266724,-0.0515137,0.2830811,0.0000000,0.0000000,0.0000000
13.0513,-0.0117188,0.0175781,-0.0195312,0.9573364,-0.0266724,-0.0515137,0.2830811,0.0000000,0.0000000,0.0000000
13.0570,0.0078125,-0.0136719,0.0195312,0.9573364,-0.0266724,-0.0515137,0.2830811,0.0000000,0.0000000,0.0000000
13.0620,-0.0078125,0.0058594,0.0117188,0.9573364,-0.0266724,-0.0515137,0.2830811,0.0000000,0.0000000,0.0000000
13.0670,-0.0273438,0.0058594,0.0312500,0.9573364,-0.0266724,-0.0515137,0.2830811,0.0000000,0.0000000,0.0000000
13.0713,-0.0039062,-0.0058594,0.0117188,0.9573364,-0.0266724,-0.0515137,0.2830811,0.0000000,0.0000000,0.0000000
13.0770,0.0195312,0.0136719,-0.0078125,0.9573364,-0.0266724,-0.0515137,0.2830811,0.0000000,0.0000000,0.0000000
13.0822,0.0000000,-0.0410156,-0.0195312,0.9573364,-0.0266724,-0.0515137,0.2830811,0.0000000,0.0000000,0.0000000
13.1020,0.0039062,0.0019531,0.0195312,0.9573364,-0.0266724,-0.0515137,0.2830811,0.0000000,0.0000000,0.0000000
13.1140,-0.0234375,-0.0058594,-0.0078125,0.9573364,-0.0266724,-0.0515137,0.2830811,0.0000000,0.0000000,0.0000000
13.1222,-0.0234375,-0.0058594,-0.0078125,0.9573364,-0.0266724,-0.0515137,0.2830811,0.0000000,0.0000000,0.0000000
13.1270,-0.0039062,-0.0058594,0.0000000,0.9573364,-0.0266724,-0.0515137,0.2830811,0.0000000,0.0000000,0.0000000
13.1321,0.0117188,-0.0019531,0.0117188,0.9573364,-0.0266724,-0.0515137,0.2830811,0.0000000,0.0000000,0.0000000
13.1406,-0.0234375,-0.0058594,-0.0156250,0.9573364,-0.0266724,-0.0515137,0.2830811,0.0000000,0.0000000,0.0000000
13.2070,-0.0039062,0.0136719,-0.0195312,0.9573364,-0.0266724,-0.0515137,0.2830811,0.0000000,0.0000000,0.0000000
13.2272,-0.0039062,0.0136719,-0.0195312,0.9573364,-0.0266724,-0.0515137,0.2830811,0.0000000,0.0000000,0.0000000
13.2320,-0.0078125,0.0253906,-0.0195312,0.9573364,-0.0266724,-0.0515137,0.2830811,0.0000000,0.0000000,0.0000000
13.2372,-0.0273438,-0.0136719,0.0117188,0.9573364,-0.0266724,-0.0515137,0.2830811,0.0000000,0.0000000,0.0000000
13.2424,-0.0312500,-0.0019531,0.0312500,0.9573364,-0.0266724,-0.0515137,0.2830811,0.0000000,0.0000000,0.0000000
13.2463,-0.0195312,0.0214844,-0.0078125,0.9573364,-0.0266724,-0.0515137,0.2830811,0.0000000,0.0000000,0.0000000
13.2520,-0.0507812,-0.0136719,0.0117188,0.9573364,-0.0266724,-0.0515137,0.2830811,0.0000000,0.0000000,0.0000000
13.2572,0.0000000,-0.0214844,-0.0273438,0.9573364,-0.0266724,-0.0515137,0.2830811,0.0000000,0.0000000,0.0000000
13.2624,-0.0039062,-0.0058594,0.0195312,0.9573364,-0.0266724,-0.0515137,0.2830811,0.0000000,0.0000000,0.0000000
13.2663,-0.0039062,0.0136719,-0.0273438,0.9573364,-0.0266724,-0.0515137,0.2830811,0.0000000,0.0000000,0.0000000
13.2713,0.0234375,0.0214844,-0.0195312,0.9573364,-0.0266724,-0.0515137,0.2830811,0.0000000,0.0000000,0.0000000
13.2768,-0.0117188,-0.0019531,-0.0078125,0.9573364,-0.0266724,-0.0515137,0.2830811,0.0000000,0.0000000,0.0000000
13.2824,-0.0312500,-0.0019531,0.0195312,0.9573364,-0.0266724,-0.0515137,0.2830811,0.0000000,0.0000000,0.0000000
13.2870,-0.0195312,0.0019531,0.0117188,0.9573364,-0.0266724,-0.0515137,0.2830811,0.0000000,0.0000000,0.0000000
13.2920,-0.0078125,-0.0175781,0.0000000,0.9573364,-0.0266724,-0.0515137,0.2830811,0.0000000,0.0000000,0.0000000
13.2960,0.0273438,-0.0097656,-0.0195312,0.9573364,-0.0266724,-0.0515137,0.2830811,0.0000000,0.0000000,0.0000000
13.3024,-0.0117188,0.0214844,0.0000000,0.9573364,-0.0266724,-0.0515137,0.2830811,0.0000000,0.0000000,0.0000000
13.3068,-0.0390625,-0.0253906,0.0234375,0.9573364,-0.0266724,-0.0515137,0.2830811,0.0000000,0.0000000,0.0000000
13.3122,0.0078125,-0.0214844,0.0312500,0.9573364,-0.0266724,-0.0515137,0.2830811,0.0000000,0.0000000,0.0000000
13.3160,-0.0039062,0.0175781,-0.0195312,0.9573364,-0.0266724,-0.0515137,0.2830811,0.0000000,0.0000000,0.0000000
13.3224,0.0273438,0.0136719,-0.0468750,0.9573364,-0.0266724,-0.0515137,0.2830811,0.0000000,0.0000000,0.0000000
13.3268,0.0195312,-0.0175781,0.0000000,0.9573364,-0.0266724,-0.0515137,0.2830811,0.0000000,0.0000000,0.0000000
13.3322,0.0195312,0.0175781,0.0000000,0.9573364,-0.0266724,-0.0515137,0.2830811,0.0000000,0.0000000,0.0000000
13.3362,0.0000000,0.0058594,0.0117188,0.9573364,-0.0266724,-0.0515137,0.2830811,0.0000000,0.0000000,0.0000000
13.3424,-0.0312500,-0.0292969,0.0312500,0.9573364,-0.0266724,-0.0515137,0.2830811,0.0000000,0.0000000,0.0000000
13.3470,-0.0195312,0.0292969,-0.0156250,0.9573364,-0.0266724,-0.0515137,0.2830811,0.0000000,0.0000000,0.0000000
13.3522,0.0039062,-0.0058594,0.0000000,0.9573364,-0.0266724,-0.0515137,0.2830811,0.0000000,0.0000000,0.0000000
13.3560,0.0039062,0.0136719,-0.0273438,0.9573364,-0.0266724,-0.0515137,0.2830811,0.0000000,0.0000000,0.0000000
13.3624,-0.0429688,-0.0136719,0.0429688,0.9573364,-0.0266724,-0.0515137,0.2830811,0.0000000,0.0000000,0.0000000
13.3668,0.0078125,0.0136719,0.0117188,0.9573364,-0.0266724,-0.0515137,0.2830811,0.0000000,0.0000000,0.0000000
13.3722,0.0195312,0.0175781,0.0000000,0.9573364,-0.0266724,-0.0515137,0.2830811,0.0000000,0.0000000,0.0000000
13.3760,0.0078125,0.0019531,0.0117188,0.9573364,-0.0266724,-0.0515137,0.2830811,0.0000000,0.0000000,0.0000000
13.3824,0.0039062,0.0253906,0.0195312,0.9573364,-0.0266724,-0.0515137,0.2830811,0.0000000,0.0000000,0.0000000
13.3868,-0.0039062,-0.0253906,0.0195312,0.9573364,-0.0266724,-0.0515137,0.2830811,0.0000000,0.0000000,0.0000000
13.3922,0.0234375,0.0058594,-0.0078125,0.9573364,-0.0266724,-0.0515137,0.2830811,0.0000000,0.0000000,0.0000000
13.3962,-0.0039062,-0.0019531,0.0117188,0.9573364,-0.0266724,-0.0515137,0.2830811,0.0000000,0.0000000,0.0000000
13.4024,-0.0039062,-0.0019531,0.0000000,0.9573364,-0.0266724,-0.0515137,0.2830811,0.0000000,0.0000000,0.0000000
13.4068,0.0156250,-0.0019531,-0.0078125,0.9573364,-0.0266724,-0.0515137,0.2830811,0.0000000,0.0000000,0.0000000
13.4122,-0.0078125,-0.0097656,0.0117188,0.9573364,-0.0266724,-0.0515137,0.2830811,0.0000000,0.0000000,0.0000000
13.4162,-0.0195312,0.0058594,0.0312500,0.9573364,-0.0266724,-0.0515137,0.2830811,0.0000000,0.0000000,0.0000000
13.4224,-0.0429688,0.0097656,0.0234375,0.9573364,-0.0266724,-0.0515137,0.2830811,0.0000000,0.0000000,0.0000000
13.4268,-0.0117188,0.0019531,0.0195312,0.9573364,-0.0266724,-0.0515137,0.2830811,0.0000000,0.0000000,0.0000000
13.4322,0.0000000,0.0253906,-0.0195312,0.9573364,-0.0266724,-0.0515137,0.2830811,0.0000000,0.0000000,0.0000000
13.4360,-0.0195312,0.0058594,0.0195312,0.9573364,-0.0266724,-0.0515137,0.2830811,0.0000000,0.0000000,0.0000000
13.4424,0.0039062,-0.0292969,0.0117188,0.9573364,-0.0266724,-0.0515137,0.2830811,0.0000000,0.0000000,0.0000000
13.4468,-0.0078125,-0.0097656,-0.0078125,0.9573364,-0.0266724,-0.0515137,0.2830811,0.0000000,0.0000000,0.0000000
13.4522,0.0273438,-0.0097656,-0.0078125,0.9573364,-0.0266724,-0.0515137,0.2830811,0.0000000,0.0000000,0.0000000
13.4562,-0.0078125,0.0097656,0.0312500,0.9573364,-0.0266724,-0.0515137,0.2830811,0.0000000,0.0000000,0.0000000
13.4640,-0.0156250,-0.0058594,0.0000000,0.9573364,-0.0266724,-0.0515137,0.2830811,0.0000000,0.0000000,0.0000000
13.4678,-0.0156250,-0.0058594,0.0195312,0.9573364,-0.0266724,-0.0515137,0.2830811,0.0000000,0.0000000,0.0000000
13.4712,-0.0156250,-0.0058594,0.0195312,0.9573364,-0.0267334,-0.0515137,0.2830811,0.0000000,0.0000000,0.0000000
13.4762,-0.0156250,-0.0058594,0.0390625,0.9573364,-0.0267334,-0.0515137,0.2830811,0.0000000,0.0000000,0.0000000
13.4824,0.0156250,0.0097656,0.0000000,0.9573364,-0.0267334,-0.0515137,0.2830811,0.0000000,0.0000000,0.0000000
13.4867,0.0234375,0.0058594,-0.0078125,0.9573364,-0.0267334,-0.0515137,0.2830811,0.0000000,0.0000000,0.0000000
13.4910,-0.0078125,-0.0097656,0.0000000,0.9573364,-0.0267334,-0.0515137,0.2830811,0.0000000,0.0000000,0.0000000
13.4962,-0.0312500,0.0253906,-0.0078125,0.9573364,-0.0267334,-0.0515137,0.2830811,0.0000000,0.0000000,0.0000000
13.5024,0.0000000,0.0175781,0.0195312,0.9573364,-0.0267334,-0.0515137,0.2830811,0.0000000,0.0000000,0.0000000
13.5053,-0.0039062,-0.0019531,0.0117188,0.9573364,-0.0267334,-0.0515137,0.2830811,0.0000000,0.0000000,0.0000000
13.5110,-0.0117188,0.0019531,-0.0078125,0.9573364,-0.0267334,-0.0515137,0.2830811,0.0000000,0.0000000,0.0000000
13.5160,-0.0195312,-0.0136719,0.0039062,0.9573364,-0.0267334,-0.0515137,0.2830811,0.0000000,0.0000000,0.0000000
13.5224,0.0039062,-0.0292969,0.0390625,0.9573364,-0.0267334,-0.0515137,0.2830811,0.0000000,0.0000000,0.0000000
13.5268,0.0117188,0.0214844,0.0312500,0.9573364,-0.0267334,-0.0515137,0.2830811,0.0000000,0.0000000,0.0000000
13.5322,0.0039062,-0.0058594,-0.0078125,0.9573364,-0.0267334,-0.0515137,0.2830811,0.0000000,0.0000000,0.0000000
13.5362,-0.0078125,-0.0097656,0.0000000,0.9573364,-0.0267334,-0.0515137,0.2830811,0.0000000,0.0000000,0.0000000
13.5414,0.0273438,0.0136719,0.0117188,0.9573364,-0.0267334,-0.0515137,0.2830811,0.0000000,0.0000000,0.0000000
13.5467,0.0312500,-0.0019531,-0.0078125,0.9573364,-0.0267334,-0.0515137,0.2830811,0.0000000,0.0000000,0.0000000
13.5520,0.0039062,-0.0058594,-0.0195312,0.9573364,-0.0267334,-0.0515137,0.2830811,0.0000000,0.0000000,0.0000000
13.5560,-0.0078125,0.0097656,-0.0078125,0.9573364,-0.0267334,-0.0515137,0.2830811,0.0000000,0.0000000,0.0000000
13.5612,0.0078125,0.0019531,0.0000000,0.9573364,-0.0267334,-0.0515137,0.2830811,0.0000000,0.0000000,0.0000000
13.5668,-0.0156250,0.0136719,0.0117188,0.9573364,-0.0267334,-0.0515137,0.2830811,0.0000000,0.0000000,0.0000000
13.5712,0.0000000,0.0058594,-0.0273438,0.9573364,-0.0267334,-0.0515137,0.2830811,0.0000000,0.0000000,0.0000000
13.5760,-0.0039062,-0.0019531,-0.0078125,0.9573364,-0.0267334,-0.0515137,0.2830811,0.0000000,0.0000000,0.0000000
13.5812,0.0156250,0.0097656,0.0312500,0.9573364,-0.0267334,-0.0515137,0.2830811,0.0000000,0.0000000,0.0000000
13.5867,-0.0234375,-0.0371094,0.0312500,0.9573364,-0.0267334,-0.0515137,0.2830811,0.0000000,0.0000000,0.0000000
13.5912,0.0039062,0.0253906,0.0000000,0.9573364,-0.0267334,-0.0515137,0.2830811,0.0000000,0.0000000,0.0000000
13.5965,0.0351562,-0.0136719,-0.0195312,0.9573364,-0.0267334,-0.0515137,0.2830811,0.0000000,0.0000000,0.0000000
13.6012,-0.0039062,0.0332031,0.0117188,0.9573364,-0.0267334,-0.0515137,0.2830811,0.0000000,0.0000000,0.0000000
13.6064,0.0273438,0.0136719,0.0000000,0.9573364,-0.0267334,-0.0515137,0.2830811,0.0000000,0.0000000,0.0000000
13.6114,-0.0156250,-0.0058594,0.0195312,0.9573364,-0.0267334,-0.0515137,0.2830811,0.0000000,0.0000000,0.0000000
13.6164,-0.0039062,0.0175781,0.0117188,0.9573364,-0.0267334,-0.0515137,0.2830811,0.0000000,0.0000000,0.0000000
13.6212,-0.0039062,0.0175781,0.0000000,0.9573364,-0.0267334,-0.0515137,0.2830811,0.0000000,0.0000000,0.0000000
13.6260,0.0039062,0.0292969,0.0390625,0.9573364,-0.0267334,-0.0515137,0.2830811,0.0000000,0.0000000,0.0000000
13.6314,0.0117188,-0.0332031,0.0195312,0.9573364,-0.0267334,-0.0515137,0.2830811,0.0000000,0.0000000,0.0000000
13.6364,-0.0039062,0.0175781,-0.0273438,0.9573364,-0.0267334,-0.0515137,0.2830811,0.0000000,0.0000000,0.0000000
13.6414,0.0000000,0.0253906,-0.0078125,0.9573364,-0.0267334,-0.0515137,0.2830811,0.0000000,0.0000000,0.0000000
13.6458,-0.0039062,-0.0019531,0.0312500,0.9573364,-0.0267334,-0.0515137,0.2830811,0.0000000,0.0000000,0.0000000
13.6514,0.0117188,0.0214844,0.0000000,0.9573364,-0.0267334,-0.0515137,0.2830811,0.0000000,0.0000000,0.0000000
13.6566,-0.0039062,-0.0019531,0.0117188,0.9573364,-0.0267334,-0.0515137,0.2830811,0.0000000,0.0000000,0.0000000
13.6612,-0.0156250,-0.0058594,0.0000000,0.9573364,-0.0267334,-0.0515137,0.2830811,0.0000000,0.0000000,0.0000000
13.6667,0.0156250,-0.0019531,-0.0078125,0.9573364,-0.0267334,-0.0515137,0.2830811,0.0000000,0.0000000,0.0000000
13.6712,-0.0351562,0.0019531,-0.0078125,0.9573364,-0.0267334,-0.0515137,0.2830811,0.0000000,0.0000000,0.0000000
13.6767,-0.0195312,0.0058594,0.0000000,0.9573364,-0.0267334,-0.0515137,0.2830811,0.0000000,0.0000000,0.0000000
13.6820,0.0273438,-0.0097656,0.0000000,0.9573364,-0.0267334,-0.0515137,0.2830811,0.0000000,0.0000000,0.0000000
13.7520,0.0390625,-0.0058594,0.0078125,0.9573364,-0.0267334,-0.0515137,0.2830811,0.0000000,0.0000000,0.0000000
13.7714,0.0390625,-0.0058594,0.0078125,0.9573364,-0.0267334,-0.0515137,0.2830811,0.0000000,0.0000000,0.0000000
13.7764,0.0117188,-0.0136719,0.0117188,0.9573364,-0.0267334,-0.0515137,0.2830811,0.0000000,0.0000000,0.0000000
13.7814,0.0039062,-0.0058594,-0.0078125,0.9573364,-0.0267334,-0.0515137,0.2830811,0.0000000,0.0000000,0.0000000
13.7864,0.0117188,-0.0136719,0.0117188,0.9573364,-0.0267334,-0.0515137,0.2830811,0.0000000,0.0000000,0.0000000
13.7910,-0.0117188,0.0019531,-0.0078125,0.9573364,-0.0267334,-0.0515137,0.2830811,0.0000000,0.0000000,0.0000000
13.7962,-0.0156250,-0.0214844,-0.0351562,0.9573364,-0.0267334,-0.0515137,0.2830811,0.0000000,0.0000000,0.0000000
13.8014,-0.0039062,0.0097656,0.0585938,0.9573364,-0.0267334,-0.0515137,0.2830811,0.0000000,0.0000000,0.0000000
13.8064,-0.0429688,0.0097656,0.0117188,0.9573364,-0.0267334,-0.0515137,0.2830811,0.0000000,0.0000000,0.0000000
13.8105,0.0078125,-0.0214844,0.0195312,0.9573364,-0.0267334,-0.0515137,0.2830811,0.0000000,0.0000000,0.0000000
13.8162,-0.0117188,-0.0175781,0.0195312,0.9573364,-0.0267334,-0.0515137,0.2830811,0.0000000,0.0000000,0.0000000
13.8214,0.0117188,0.0214844,0.0000000,0.9573364,-0.0267334,-0.0515137,0.2830811,0.0000000,0.0000000,0.0000000
13.8264,0.0156250,0.0292969,0.0273438,0.9573364,-0.0267334,-0.0515137,0.2830811,0.0000000,0.0000000,0.0000000
13.8305,-0.0234375,0.0214844,0.0117188,0.9573364,-0.0267334,-0.0515137,0.2830811,0.0000000,0.0000000,0.0000000
13.8360,0.0312500,-0.0019531,0.0000000,0.9573364,-0.0267334,-0.0515137,0.2830811,0.0000000,0.0000000,0.0000000
13.8412,-0.0078125,-0.0097656,-0.0273438,0.9573364,-0.0267334,-0.0515137,0.2830811,0.0000000,0.0000000,0.0000000
13.8464,0.0234375,0.0058594,0.0117188,0.9573364,-0.0267334,-0.0515137,0.2830811,0.0000000,0.0000000,0.0000000
13.8512,-0.0195312,-0.0136719,0.0117188,0.9573364,-0.0267334,-0.0514526,0.2830811,0.0000000,0.0000000,0.0000000
13.8564,-0.0078125,-0.0097656,0.0000000,0.9573364,-0.0267334,-0.0514526,0.2830811,0.0000000,0.0000000,0.0000000
13.8612,-0.0312500,0.0019531,0.0117188,0.9573364,-0.0267334,-0.0514526,0.2830811,0.0000000,0.0000000,0.0000000
13.8664,-0.0195312,0.0058594,0.0195312,0.9573364,-0.0267334,-0.0514526,0.2830811,0.0000000,0.0000000,0.0000000
13.8707,0.0039062,-0.0058594,0.0312500,0.9573364,-0.0267334,-0.0514526,0.2830811,0.0000000,0.0000000,0.0000000
13.8762,-0.0039062,-0.0019531,-0.0078125,0.9573364,-0.0267334,-0.0514526,0.2830811,0.0000000,0.0000000,0.0000000
13.8812,0.0156250,0.0097656,0.0000000,0.9573364,-0.0267334,-0.0514526,0.2830811,0.0000000,0.0000000,0.0000000
13.8864,0.0000000,0.0253906,-0.0390625,0.9573364,-0.0267334,-0.0514526,0.2830811,0.0000000,0.0000000,0.0000000
13.8912,0.0039062,0.0136719,-0.0273438,0.9573364,-0.0267334,-0.0514526,0.2830811,0.0000000,0.0000000,0.0000000
13.8964,0.0078125,0.0371094,-0.0195312,0.9573364,-0.0267334,-0.0514526,0.2830811,0.0000000,0.0000000,0.0000000
13.9014,-0.0039062,-0.0019531,0.0195312,0.9573364,-0.0267334,-0.0514526,0.2830811,0.0000000,0.0000000,0.0000000
13.9066,-0.0195312,0.0058594,0.0117188,0.9573364,-0.0267334,-0.0514526,0.2830811,0.0000000,0.0000000,0.0000000
13.9110,-0.0156250,0.0371094,0.0000000,0.9573364,-0.0267334,-0.0514526,0.2830811,0.0000000,0.0000000,0.0000000
13.9162,-0.0351562,0.0019531,0.0039062,0.9573364,-0.0267334,-0.0514526,0.2830811,0.0000000,0.0000000,0.0000000
13.9214,-0.0234375,-0.0019531,0.0390625,0.9573364,-0.0267334,-0.0514526,0.2830811,0.0000000,0.0000000,0.0000000
13.9264,-0.0234375,0.0214844,0.0117188,0.9573364,-0.0267334,-0.0514526,0.2830811,0.0000000,0.0000000,0.0000000
13.9310,0.0156250,0.0019531,0.0117188,0.9573364,-0.0267334,-0.0514526,0.2830811,0.0000000,0.0000000,0.0000000
13.9364,0.0000000,-0.0019531,0.0000000,0.9573364,-0.0267334,-0.0514526,0.2830811,0.0000000,0.0000000,0.0000000
13.9414,-0.0195312,-0.0019531,0.0117188,0.9573364,-0.0267334,-0.0514526,0.2830811,0.0000000,0.0000000,0.0000000
13.9466,0.0351562,0.0019531,0.0273438,0.9573364,-0.0267334,-0.0514526,0.2830811,0.0000000,0.0000000,0.0000000
13.9508,0.0117188,-0.0214844,-0.0195312,0.9573364,-0.0267334,-0.0514526,0.2830811,0.0000000,0.0000000,0.0000000
13.9564,-0.0117188,-0.0058594,0.0312500,0.9573364,-0.0267334,-0.0514526,0.2830811,0.0000000,0.0000000,0.0000000
13.9612,0.0351562,-0.0214844,-0.0078125,0.9573364,-0.0267334,-0.0514526,0.2830811,0.0000000,0.0000000,0.0000000
13.9664,0.0195312,0.0097656,0.0390625,0.9573364,-0.0267334,-0.0514526,0.2830811,0.0000000,0.0000000,0.0000000
13.9708,0.0039062,-0.0136719,0.0195312,0.9573364,-0.0267334,-0.0514526,0.2830811,0.0000000,0.0000000,0.0000000
13.9764,0.0000000,-0.0019531,0.0000000,0.9573364,-0.0267334,-0.0514526,0.2830811,0.0000000,0.0000000,0.0000000
13.9812,0.0273438,0.0058594,0.0000000,0.9573364,-0.0267334,-0.0514526,0.2830811,0.0000000,0.0000000,0.0000000
13.9864,0.0156250,-0.0136719,-0.0195312,0.9573364,-0.0267334,-0.0514526,0.2830811,0.0000000,0.0000000,0.0000000
13.9908,0.0078125,0.0058594,0.0117188,0.9573364,-0.0267334,-0.0514526,0.2830811,0.0000000,0.0000000,0.0000000
13.9959,-0.0039062,-0.0097656,0.0117188,0.9573364,-0.0267334,-0.0514526,0.2830811,0.0000000,0.0000000,0.0000000
14.0008,0.0195312,-0.0332031,0.0390625,0.9573364,-0.0267334,-0.0514526,0.2830811,0.0000000,0.0000000,0.0000000
14.0066,-0.0039062,-0.0332031,0.0000000,0.9573364,-0.0267334,-0.0514526,0.2830811,0.0000000,0.0000000,0.0000000
14.0112,0.0078125,-0.0058594,-0.0195312,0.9573364,-0.0267334,-0.0514526,0.2830811,0.0000000,0.0000000,0.0000000
14.0164,-0.0039062,-0.0097656,0.0195312,0.9573364,-0.0267334,-0.0514526,0.2830811,0.0000000,0.0000000,0.0000000
14.0212,0.0039062,-0.0136719,0.0117188,0.9573364,-0.0267334,-0.0514526,0.2830811,0.0000000,0.0000000,0.0000000
14.0264,0.0039062,0.0058594,0.0000000,0.9573364,-0.0267334,-0.0514526,0.2830811,0.0000000,0.0000000,0.0000000
14.0305,-0.0273438,-0.0292969,0.0234375,0.9573364,-0.0267334,-0.0514526,0.2830811,0.0000000,0.0000000,0.0000000
14.0366,0.0156250,-0.0136719,-0.0195312,0.9573364,-0.0267334,-0.0514526,0.2830811,0.0000000,0.0000000,0.0000000
14.0408,0.0195312,0.0097656,-0.0195312,0.9573364,-0.0267334,-0.0514526,0.2830811,0.0000000,0.0000000,0.0000000
14.0464,-0.0039062,0.0097656,0.0117188,0.9573364,-0.0267334,-0.0514526,0.2830811,0.0000000,0.0000000,0.0000000
14.0503,-0.0039062,-0.0097656,0.0195312,0.9573364,-0.0267334,-0.0514526,0.2830811,0.0000000,0.0000000,0.0000000
14.0560,0.0039062,-0.0019531,0.0312500,0.9573364,-0.0267334,-0.0514526,0.2830811,0.0000000,0.0000000,0.0000000
14.0610,0.0156250,0.0019531,-0.0078125,0.9573364,-0.0267334,-0.0514526,0.2830811,0.0000000,0.0000000,0.0000000
14.0662,-0.0117188,-0.0058594,-0.0156250,0.9573364,-0.0267334,-0.0514526,0.2830811,0.0000000,0.0000000,0.0000000
14.0710,0.0078125,0.0058594,0.0195312,0.9573364,-0.0267334,-0.0514526,0.2830811,0.0000000,0.0000000,0.0000000
14.0760,0.0156250,-0.0136719,-0.0664062,0.9573364,-0.0267334,-0.0514526,0.2830811,0.0000000,0.0000000,0.0000000
14.0810,-0.0156250,0.0058594,-0.0156250,0.9573364,-0.0267334,-0.0514526,0.2830811,0.0000000,0.0000000,0.0000000
14.0862,-0.0156250,0.0058594,0.0117188,0.9573364,-0.0267334,-0.0514526,0.2830811,0.0000000,0.0000000,0.0000000
14.0908,-0.0078125,-0.0175781,0.0000000,0.9573364,-0.0267334,-0.0514526,0.2830811,0.0000000,0.0000000,0.0000000
14.0962,-0.0039062,-0.0097656,0.0000000,0.9573364,-0.0267334,-0.0514526,0.2830811,0.0000000,0.0000000,0.0000000
14.1010,-0.0078125,0.0019531,-0.0078125,0.9573364,-0.0267334,-0.0514526,0.2830811,0.0000000,0.0000000,0.0000000
14.1060,0.0078125,-0.0058594,0.0000000,0.9573364,-0.0267334,-0.0514526,0.2830811,0.0000000,0.0000000,0.0000000
14.1105,0.0039062,-0.0136719,0.0195312,0.9573364,-0.0267334,-0.0514526,0.2830811,0.0000000,0.0000000,0.0000000
14.1160,0.0195312,0.0097656,-0.0078125,0.9573364,-0.0267334,-0.0514526,0.2830811,0.0000000,0.0000000,0.0000000
14.1210,0.0000000,-0.0019531,0.0000000,0.9573364,-0.0267334,-0.0514526,0.2830811,0.0000000,0.0000000,0.0000000
14.1264,-0.0039062,0.0097656,-0.0078125,0.9573364,-0.0267334,-0.0514526,0.2830811,0.0000000,0.0000000,0.0000000
14.1307,-0.0078125,0.0371094,0.0117188,0.9573364,-0.0267334,-0.0514526,0.2830811,0.0000000,0.0000000,0.0000000
14.1360,-0.0078125,-0.0175781,0.0000000,0.9573364,-0.0267334,-0.0514526,0.2830811,0.0000000,0.0000000,0.0000000
14.1410,0.0234375,-0.0019531,-0.0078125,0.9573364,-0.0267334,-0.0514526,0.2830811,0.0000000,0.0000000,0.0000000
14.1464,0.0078125,0.0058594,0.0507812,0.9573364,-0.0267334,-0.0514526,0.2830811,0.0000000,0.0000000,0.0000000
14.1508,-0.0039062,-0.0097656,0.0312500,0.9573364,-0.0267334,-0.0514526,0.2830811,0.0000000,0.0000000,0.0000000
14.1562,0.0195312,-0.0097656,0.0117188,0.9573364,-0.0267334,-0.0514526,0.2830811,0.0000000,0.0000000,0.0000000
14.1612,0.0195312,0.0097656,0.0390625,0.9573364,-0.0267334,-0.0514526,0.2830811,0.0000000,0.0000000,0.0000000
14.1664,0.0195312,-0.0097656,0.0195312,0.9573364,-0.0267334,-0.0514526,0.2830811,0.0000000,0.0000000,0.0000000
14.1708,0.0429688,-0.0058594,-0.0273438,0.9573364,-0.0267334,-0.0514526,0.2830811,0.0000000,0.0000000,0.0000000
14.1762,0.0312500,0.0136719,-0.0195312,0.9573364,-0.0267334,-0.0514526,0.2830811,0.0000000,0.0000000,0.0000000
14.1812,0.0195312,0.0332031,0.0117188,0.9573364,-0.0267334,-0.0514526,0.2830811,0.0000000,0.0000000,0.0000000
14.1864,0.0078125,-0.0058594,-0.0273438,0.9573364,-0.0267334,-0.0514526,0.2830811,0.0000000,0.0000000,0.0000000
14.1908,0.0078125,-0.0292969,0.0000000,0.9573364,-0.0267334,-0.0514526,0.2830811,0.0000000,0.0000000,0.0000000
14.1962,-0.0195312,-0.0019531,-0.0078125,0.9573364,-0.0267334,-0.0514526,0.2830811,0.0000000,0.0000000,0.0000000
14.2010,0.0195312,-0.0097656,0.0117188,0.9573364,-0.0267334,-0.0514526,0.2830811,0.0000000,0.0000000,0.0000000
14.2064,0.0156250,0.0019531,0.0000000,0.9573364,-0.0267334,-0.0514526,0.2830811,0.0000000,0.0000000,0.0000000
14.2108,-0.0195312,-0.0019531,-0.0156250,0.9573364,-0.0267334,-0.0514526,0.2830811,0.0000000,0.0000000,0.0000000
14.2162,-0.0117188,0.0371094,0.0000000,0.9573364,-0.0267334,-0.0514526,0.2830811,0.0000000,0.0000000,0.0000000
14.2207,-0.0117188,-0.0058594,-0.0351562,0.9573364,-0.0267334,-0.0514526,0.2830811,0.0000000,0.0000000,0.0000000
14.2277,0.0000000,-0.0253906,0.0000000,0.9573364,-0.0267334,-0.0514526,0.2830811,0.0000000,0.0000000,0.0000000
14.2960,0.0039062,0.0175781,0.0000000,0.9573364,-0.0267334,-0.0514526,0.2830811,0.0000000,0.0000000,0.0000000
14.3210,0.0039062,0.0175781,0.0000000,0.9573364,-0.0267334,-0.0514526,0.2830811,0.0000000,0.0000000,0.0000000
14.3262,-0.0117188,-0.0058594,0.0195312,0.9573364,-0.0267334,-0.0514526,0.2830811,0.0000000,0.0000000,0.0000000
14.3310,0.0156250,0.0214844,0.0117188,0.9573364,-0.0267334,-0.0514526,0.2830811,0.0000000,0.0000000,0.0000000
14.3360,-0.0117188,-0.0253906,0.0195312,0.9573364,-0.0267334,-0.0513916,0.2830811,0.0000000,0.0000000,0.0000000
14.3401,-0.0039062,-0.0097656,0.0117188,0.9573364,-0.0267334,-0.0513916,0.2830811,0.0000000,0.0000000,0.0000000
14.3460,-0.0078125,0.0019531,0.0000000,0.9573364,-0.0267334,-0.0513916,0.2830811,0.0000000,0.0000000,0.0000000
14.3510,0.0195312,-0.0097656,0.0312500,0.9573364,-0.0267334,-0.0513916,0.2830811,0.0000000,0.0000000,0.0000000
14.3562,0.0429688,-0.0058594,-0.0195312,0.9573364,-0.0267334,-0.0513916,0.2830811,0.0000000,0.0000000,0.0000000
14.3603,0.0078125,-0.0292969,0.0390625,0.9573364,-0.0267334,-0.0513916,0.2830811,0.0000000,0.0000000,0.0000000
14.3658,-0.0039062,-0.0332031,-0.0273438,0.9573364,-0.0267334,-0.0513916,0.2830811,0.0000000,0.0000000,0.0000000
14.3710,0.0078125,0.0136719,-0.0273438,0.9573364,-0.0267334,-0.0513916,0.2830811,0.0000000,0.0000000,0.0000000
14.3762,0.0273438,0.0058594,0.0273438,0.9573364,-0.0267334,-0.0513916,0.2830811,0.0000000,0.0000000,0.0000000
14.3805,0.0156250,-0.0214844,0.0195312,0.9573364,-0.0267334,-0.0513916,0.2830811,0.0000000,0.0000000,0.0000000
14.3860,0.0156250,0.0019531,0.0000000,0.9573364,-0.0267334,-0.0513916,0.2830811,0.0000000,0.0000000,0.0000000
14.3912,0.0351562,-0.0019531,-0.0468750,0.9573364,-0.0267334,-0.0513916,0.2830811,0.0000000,0.0000000,0.0000000
14.3962,0.0117188,0.0136719,0.0195312,0.9573364,-0.0267334,-0.0513916,0.2830811,0.0000000,0.0000000,0.0000000
14.4003,-0.0039062,-0.0097656,0.0000000,0.9573364,-0.0267334,-0.0513916,0.2830811,0.0000000,0.0000000,0.0000000
14.4062,0.0039062,-0.0136719,-0.0195312,0.9573364,-0.0267334,-0.0513916,0.2830811,0.0000000,0.0000000,0.0000000
14.4110,0.0273438,-0.0175781,-0.0078125,0.9573364,-0.0267334,-0.0513916,0.2830811,0.0000000,0.0000000,0.0000000
14.4160,-0.0078125,-0.0019531,0.0117188,0.9573364,-0.0267334,-0.0513916,0.2830811,0.0000000,0.0000000,0.0000000
14.4203,-0.0078125,0.0097656,0.0195312,0.9573364,-0.0267334,-0.0513916,0.2830811,0.0000000,0.0000000,0.0000000
14.4260,0.0000000,0.0058594,0.0117188,0.9573364,-0.0267334,-0.0513916,0.2830811,0.0000000,0.0000000,0.0000000
14.4310,-0.0039062,0.0058594,-0.0078125,0.9573364,-0.0267334,-0.0513916,0.2830811,0.0000000,0.0000000,0.0000000
14.4362,-0.0468750,-0.0136719,0.0117188,0.9573364,-0.0267334,-0.0513916,0.2830811,0.0000000,0.0000000,0.0000000
14.4405,0.0429688,-0.0292969,-0.0273438,0.9573364,-0.0267334,-0.0513916,0.2830811,0.0000000,0.0000000,0.0000000
14.4460,-0.0078125,-0.0019531,0.0000000,0.9573364,-0.0267334,-0.0513916,0.2830811,0.0000000,0.0000000,0.0000000
14.4512,0.0078125,0.0019531,0.0468750,0.9573364,-0.0267334,-0.0513916,0.2830811,0.0000000,0.0000000,0.0000000
14.4557,0.0039062,0.0136719,-0.0195312,0.9573364,-0.0267334,-0.0513916,0.2830811,0.0000000,0.0000000,0.0000000
14.4599,-0.0156250,-0.0175781,-0.0273438,0.9573364,-0.0267334,-0.0513916,0.2830811,0.0000000,0.0000000,0.0000000
14.4658,-0.0156250,0.0019531,-0.0195312,0.9573364,-0.0267334,-0.0513916,0.2830811,0.0000000,0.0000000,0.0000000
14.4712,0.0312500,0.0019531,0.0585938,0.9573364,-0.0267334,-0.0513916,0.2830811,0.0000000,0.0000000,0.0000000
14.4762,-0.0156250,0.0019531,0.0195312,0.9573364,-0.0267334,-0.0513916,0.2830811,0.0000000,0.0000000,0.0000000
14.4803,-0.0195312,-0.0410156,-0.0273438,0.9573364,-0.0267334,-0.0513916,0.2830811,0.0000000,0.0000000,0.0000000
14.4860,-0.0195312,-0.0253906,-0.0156250,0.9573364,-0.0266724,-0.0513916,0.2830811,0.0000000,0.0000000,0.0000000
14.4910,-0.0390625,-0.0253906,0.0390625,0.9573364,-0.0266724,-0.0513916,0.2830811,0.0000000,0.0000000,0.0000000
14.4962,-0.0078125,-0.0449219,0.0507812,0.9573364,-0.0266724,-0.0513916,0.2830811,0.0000000,0.0000000,0.0000000
14.5003,-0.0195312,-0.0058594,-0.0156250,0.9573364,-0.0266724,-0.0513916,0.2830811,0.0000000,0.0000000,0.0000000
14.5058,-0.0039062,-0.0136719,-0.0273438,0.9573364,-0.0266724,-0.0514526,0.2830811,0.0000000,0.0000000,0.0000000
14.5110,0.0039062,0.0019531,-0.0195312,0.9573364,-0.0266724,-0.0514526,0.2830811,0.0000000,0.0000000,0.0000000
14.5160,0.0039062,-0.0058594,0.0312500,0.9573364,-0.0266724,-0.0514526,0.2830811,0.0000000,0.0000000,0.0000000
14.5205,-0.0351562,-0.0097656,-0.0273438,0.9573364,-0.0266724,-0.0514526,0.2830811,0.0000000,0.0000000,0.0000000
14.5260,0.0039062,0.0019531,-0.0195312,0.9573364,-0.0266724,-0.0514526,0.2830811,0.0000000,0.0000000,0.0000000
14.5310,-0.0351562,-0.0292969,-0.0078125,0.9573364,-0.0266724,-0.0514526,0.2830811,0.0000000,0.0000000,0.0000000
14.5360,-0.0156250,-0.0175781,0.0507812,0.9573364,-0.0266724,-0.0514526,0.2830811,0.0000000,0.0000000,0.0000000
14.5403,0.0234375,-0.0097656,0.0000000,0.9573364,-0.0266724,-0.0514526,0.2830811,0.0000000,0.0000000,0.0000000
14.5455,0.0273438,0.0097656,0.0078125,0.9573364,-0.0266724,-0.0514526,0.2830811,0.0000000,0.0000000,0.0000000
14.5514,0.0156250,0.0058594,0.0312500,0.9573364,-0.0266724,-0.0514526,0.2830811,0.0000000,0.0000000,0.0000000
14.5562,-0.0078125,-0.0136719,0.0390625,0.9573364,-0.0266724,-0.0514526,0.2830811,0.0000000,0.0000000,0.0000000
14.5603,-0.0351562,0.0097656,-0.0156250,0.9573364,-0.0266724,-0.0514526,0.2830811,0.0000000,0.0000000,0.0000000
14.5662,0.0078125,-0.0253906,-0.0273438,0.9573364,-0.0266724,-0.0514526,0.2830811,0.0000000,0.0000000,0.0000000
14.5710,-0.0039062,-0.0058594,0.0117188,0.9573364,-0.0266724,-0.0514526,0.2830811,0.0000000,0.0000000,0.0000000
14.5760,-0.0078125,0.0058594,0.0000000,0.9573364,-0.0266724,-0.0514526,0.2830811,0.0000000,0.0000000,0.0000000
14.5803,-0.0078125,0.0058594,0.0000000,0.9573364,-0.0266724,-0.0514526,0.2830811,0.0000000,0.0000000,0.0000000
14.5860,0.0234375,-0.0019531,-0.0078125,0.9573364,-0.0266724,-0.0514526,0.2830811,0.0000000,0.0000000,0.0000000
14.5912,0.0195312,-0.0097656,0.0000000,0.9573364,-0.0266724,-0.0514526,0.2830811,0.0000000,0.0000000,0.0000000
14.5960,0.0117188,0.0175781,0.0000000,0.9573364,-0.0266724,-0.0514526,0.2830811,0.0000000,0.0000000,0.0000000
14.6003,0.0234375,0.0214844,-0.0078125,0.9573364,-0.0266724,-0.0514526,0.2830811,0.0000000,0.0000000,0.0000000
14.6060,0.0234375,0.0410156,-0.0468750,0.9573364,-0.0266724,-0.0514526,0.2830811,0.0000000,0.0000000,0.0000000
14.6112,0.0078125,0.0292969,-0.0390625,0.9573364,-0.0266724,-0.0514526,0.2830811,0.0000000,0.0000000,0.0000000
14.6162,0.0390625,0.0449219,-0.0273438,0.9573364,-0.0266724,-0.0514526,0.2830811,0.0000000,0.0000000,0.0000000
14.6203,0.0000000,0.0136719,0.0312500,0.9573364,-0.0266724,-0.0514526,0.2830811,0.0000000,0.0000000,0.0000000
14.6260,-0.0117188,-0.0019531,-0.0078125,0.9573364,-0.0266724,-0.0514526,0.2830811,0.0000000,0.0000000,0.0000000
14.6312,-0.0156250,-0.0097656,0.0585938,0.9573364,-0.0266724,-0.0514526,0.2830811,0.0000000,0.0000000,0.0000000
14.6360,0.0078125,0.0292969,-0.0078125,0.9573364,-0.0266724,-0.0514526,0.2830811,0.0000000,0.0000000,0.0000000
14.6403,0.0117188,-0.0019531,0.0390625,0.9573364,-0.0266724,-0.0514526,0.2830811,0.0000000,0.0000000,0.0000000
14.6460,-0.0156250,0.0097656,0.0000000,0.9573364,-0.0266724,-0.0514526,0.2830811,0.0000000,0.0000000,0.0000000
14.6514,-0.0078125,0.0058594,-0.0078125,0.9573364,-0.0266724,-0.0514526,0.2830811,0.0000000,0.0000000,0.0000000
14.6562,-0.0117188,0.0097656,0.0117188,0.9573364,-0.0266724,-0.0514526,0.2830811,0.0000000,0.0000000,0.0000000
14.6603,-0.0078125,-0.0019531,0.0117188,0.9573364,-0.0266724,-0.0514526,0.2830811,0.0000000,0.0000000,0.0000000
14.6658,-0.0468750,-0.0136719,-0.0351562,0.9573364,-0.0266724,-0.0514526,0.2830811,0.0000000,0.0000000,0.0000000
14.6712,0.0078125,0.0019531,0.0312500,0.9573364,-0.0266724,-0.0514526,0.2830811,0.0000000,0.0000000,0.0000000
14.6762,-0.0039062,-0.0136719,0.0195312,0.9573364,-0.0266724,-0.0514526,0.2830811,0.0000000,0.0000000,0.0000000
14.6810,0.0117188,-0.0097656,0.0195312,0.9573364,-0.0266724,-0.0514526,0.2830811,0.0000000,0.0000000,0.0000000
14.6860,-0.0039062,-0.0136719,0.0195312,0.9573364,-0.0266724,-0.0514526,0.2830811,0.0000000,0.0000000,0.0000000
14.6912,-0.0078125,-0.0019531,0.0117188,0.9573364,-0.0266724,-0.0514526,0.2830811,0.0000000,0.0000000,0.0000000
14.6960,0.0078125,-0.0214844,0.0312500,0.9573364,-0.0266724,-0.0514526,0.2830811,0.0000000,0.0000000,0.0000000
14.7005,-0.0156250,0.0019531,-0.0273438,0.9573364,-0.0266724,-0.0514526,0.2830811,0.0000000,0.0000000,0.0000000
14.7060,0.0351562,-0.0253906,0.0000000,0.9573364,-0.0266724,-0.0514526,0.2830811,0.0000000,0.0000000,0.0000000
14.7114,0.0039062,-0.0214844,-0.0078125,0.9573364,-0.0266724,-0.0514526,0.2830811,0.0000000,0.0000000,0.0000000
14.7160,-0.0156250,-0.0175781,0.0312500,0.9573364,-0.0266724,-0.0514526,0.2830811,0.0000000,0.0000000,0.0000000
14.7205,-0.0234375,-0.0136719,0.0195312,0.9573364,-0.0266724,-0.0514526,0.2830811,0.0000000,0.0000000,0.0000000
14.7260,0.0039062,-0.0214844,0.0117188,0.9573364,-0.0266724,-0.0514526,0.2830811,0.0000000,0.0000000,0.0000000
14.7314,-0.0156250,-0.0410156,0.0195312,0.9573364,-0.0266724,-0.0514526,0.2830811,0.0000000,0.0000000,0.0000000
14.7362,-0.0312500,-0.0097656,0.0039062,0.9573364,-0.0266724,-0.0514526,0.2830811,0.0000000,0.0000000,0.0000000
14.7395,0.0039062,-0.0058594,0.0312500,0.9573364,-0.0266724,-0.0514526,0.2830811,0.0000000,0.0000000,0.0000000
14.7460,-0.0117188,0.0253906,0.0117188,0.9573364,-0.0266724,-0.0514526,0.2830811,0.0000000,0.0000000,0.0000000
14.7514,-0.0117188,0.0097656,-0.0195312,0.9573364,-0.0266724,-0.0514526,0.2830811,0.0000000,0.0000000,0.0000000
14.7562,-0.0078125,-0.0019531,0.0000000,0.9573364,-0.0266724,-0.0514526,0.2830811,0.0000000,0.0000000,0.0000000
14.7593,-0.0039062,-0.0136719,0.0117188,0.9573364,-0.0266724,-0.0514526,0.2830811,0.0000000,0.0000000,0.0000000
14.7660,-0.0039062,-0.0136719,0.0195312,0.9573364,-0.0266724,-0.0514526,0.2830811,0.0000000,0.0000000,0.0000000
14.7884,0.0195312,0.0058594,-0.0078125,0.9573364,-0.0266724,-0.0514526,0.2830811,0.0000000,0.0000000,0.0000000
14.8570,0.0078125,0.0019531,0.0117188,0.9573364,-0.0266724,-0.0514526,0.2830811,0.0000000,0.0000000,0.0000000
14.8757,0.0078125,0.0019531,0.0117188,0.9573364,-0.0266724,-0.0514526,0.2830811,0.0000000,0.0000000,0.0000000
14.8802,0.0078125,0.0019531,0.0117188,0.9573364,-0.0266724,-0.0514526,0.2830811,0.0000000,0.0000000,0.0000000
14.8860,0.0273438,0.0019531,0.0195312,0.9573364,-0.0266724,-0.0514526,0.2830811,0.0000000,0.0000000,0.0000000
14.8912,-0.0078125,-0.0019531,0.0000000,0.9573364,-0.0266724,-0.0514526,0.2830811,0.0000000,0.0000000,0.0000000
14.8957,-0.0078125,-0.0019531,0.0195312,0.9573364,-0.0266724,-0.0514526,0.2830811,0.0000000,0.0000000,0.0000000
14.9012,0.0078125,0.0214844,-0.0273438,0.9573364,-0.0266724,-0.0514526,0.2830811,0.0000000,0.0000000,0.0000000
14.9050,-0.0273438,-0.0019531,0.0312500,0.9573364,-0.0266724,-0.0514526,0.2830811,0.0000000,0.0000000,0.0000000
14.9114,0.0117188,0.0097656,0.0000000,0.9573364,-0.0266724,-0.0514526,0.2830811,0.0000000,0.0000000,0.0000000
14.9158,0.0156250,-0.0019531,-0.0078125,0.9573364,-0.0266724,-0.0514526,0.2830811,0.0000000,0.0000000,0.0000000
14.9212,-0.0117188,-0.0097656,0.0000000,0.9573364,-0.0266724,-0.0514526,0.2830811,0.0000000,0.0000000,0.0000000
14.9250,-0.0195312,-0.0253906,0.0195312,0.9573364,-0.0266724,-0.0514526,0.2830811,0.0000000,0.0000000,0.0000000
14.9312,-0.0156250,-0.0175781,0.0195312,0.9573364,-0.0266724,-0.0514526,0.2830811,0.0000000,0.0000000,0.0000000
14.9358,-0.0195312,-0.0058594,-0.0156250,0.9573364,-0.0266724,-0.0514526,0.2830811,0.0000000,0.0000000,0.0000000
14.9412,-0.0039062,-0.0371094,-0.0468750,0.9573364,-0.0266724,-0.0514526,0.2830811,0.0000000,0.0000000,0.0000000
14.9450,-0.0273438,-0.0019531,-0.0078125,0.9573364,-0.0266724,-0.0514526,0.2830811,0.0000000,0.0000000,0.0000000
14.9514,-0.0156250,-0.0175781,0.0117188,0.9573364,-0.0266724,-0.0514526,0.2830811,0.0000000,0.0000000,0.0000000
14.9557,-0.0195312,0.0175781,0.0117188,0.9573364,-0.0266724,-0.0514526,0.2830811,0.0000000,0.0000000,0.0000000
14.9610,-0.0117188,-0.0097656,0.0195312,0.9573364,-0.0266724,-0.0514526,0.2830811,0.0000000,0.0000000,0.0000000
14.9650,-0.0195312,0.0136719,0.0000000,0.9573364,-0.0266724,-0.0514526,0.2830811,0.0000000,0.0000000,0.0000000
14.9712,-0.0078125,0.0097656,0.0195312,0.9573364,-0.0266724,-0.0514526,0.2830811,0.0000000,0.0000000,0.0000000
14.9758,0.0000000,-0.0136719,0.0390625,0.9573364,-0.0266724,-0.0514526,0.2830811,0.0000000,0.0000000,0.0000000
14.9812,-0.0117188,-0.0097656,0.0000000,0.9573364,-0.0266724,-0.0514526,0.2830811,0.0000000,0.0000000,0.0000000
14.9852,-0.0195312,-0.0058594,-0.0078125,0.9573364,-0.0266724,-0.0514526,0.2830811,0.0000000,0.0000000,0.0000000
14.9914,-0.0156250,0.0019531,0.0195312,0.9573364,-0.0266724,-0.0514526,0.2830811,0.0000000,0.0000000,0.0000000
14.9958,0.0234375,0.0136719,0.0195312,0.9573364,-0.0266724,-0.0514526,0.2830811,0.0000000,0.0000000,0.0000000
15.0012,0.0117188,-0.0253906,0.0000000,0.9573364,-0.0266724,-0.0514526,0.2830811,0.0000000,0.0000000,0.0000000
15.0050,0.0195312,-0.0175781,-0.0078125,0.9573364,-0.0266724,-0.0514526,0.2830811,0.0000000,0.0000000,0.0000000
15.0114,-0.0078125,-0.0019531,0.0000000,0.9573364,-0.0266724,-0.0514526,0.2830811,0.0000000,0.0000000,0.0000000
15.0158,-0.0234375,0.0058594,0.0195312,0.9573364,-0.0266724,-0.0514526,0.2830811,0.0000000,0.0000000,0.0000000
15.0212,-0.0156250,-0.0175781,0.0195312,0.9573364,-0.0266724,-0.0514526,0.2830811,0.0000000,0.0000000,0.0000000
15.0252,0.0039062,-0.0214844,0.0117188,0.9573364,-0.0266724,-0.0514526,0.2830811,0.0000000,0.0000000,0.0000000
15.0314,0.0117188,-0.0097656,0.0312500,0.9573364,-0.0266724,-0.0514526,0.2830811,0.0000000,0.0000000,0.0000000
15.0358,-0.0039062,-0.0371094,-0.0195312,0.9573364,-0.0266724,-0.0514526,0.2830811,0.0000000,0.0000000,0.0000000
15.0412,-0.0039062,-0.0058594,-0.0351562,0.9573364,-0.0266724,-0.0514526,0.2830811,0.0000000,0.0000000,0.0000000
15.0448,0.0117188,0.0214844,-0.0195312,0.9573364,-0.0266724,-0.0514526,0.2830811,0.0000000,0.0000000,0.0000000
15.0512,-0.0117188,0.0019531,0.0000000,0.9573364,-0.0266724,-0.0514526,0.2830811,0.0000000,0.0000000,0.0000000
15.0557,-0.0039062,-0.0019531,0.0000000,0.9573364,-0.0266724,-0.0514526,0.2830811,0.0000000,0.0000000,0.0000000
15.0605,0.0000000,-0.0136719,0.0195312,0.9573364,-0.0266724,-0.0514526,0.2830811,0.0000000,0.0000000,0.0000000
15.0648,0.0351562,0.0097656,0.0000000,0.9573364,-0.0266724,-0.0514526,0.2830811,0.0000000,0.0000000,0.0000000
15.0702,0.0039062,-0.0058594,0.0000000,0.9573364,-0.0266724,-0.0514526,0.2830811,0.0000000,0.0000000,0.0000000
15.0757,0.0234375,0.0058594,0.0000000,0.9573364,-0.0266724,-0.0514526,0.2830811,0.0000000,0.0000000,0.0000000
15.0812,0.0117188,0.0449219,-0.0078125,0.9573364,-0.0266724,-0.0514526,0.2830811,0.0000000,0.0000000,0.0000000
15.0850,0.0000000,0.0058594,-0.0078125,0.9573364,-0.0266724,-0.0514526,0.2830811,0.0000000,0.0000000,0.0000000
15.0912,-0.0117188,-0.0175781,0.0117188,0.9573364,-0.0266724,-0.0514526,0.2830811,0.0000000,0.0000000,0.0000000
15.0958,-0.0039062,-0.0019531,0.0117188,0.9573364,-0.0266724,-0.0514526,0.2830811,0.0000000,0.0000000,0.0000000
15.1012,0.0273438,0.0136719,0.0195312,0.9573364,-0.0266724,-0.0514526,0.2830811,0.0000000,0.0000000,0.0000000
15.1050,-0.0039062,-0.0292969,0.0195312,0.9573364,-0.0266724,-0.0514526,0.2830811,0.0000000,0.0000000,0.0000000
15.1102,-0.0195312,0.0058594,0.0195312,0.9573364,-0.0266724,-0.0514526,0.2830811,0.0000000,0.0000000,0.0000000
15.1151,0.0039062,-0.0058594,-0.0195312,0.9573364,-0.0266724,-0.0514526,0.2830811,0.0000000,0.0000000,0.0000000
15.1210,-0.0156250,-0.0292969,0.0312500,0.9573364,-0.0266724,-0.0514526,0.2830811,0.0000000,0.0000000,0.0000000
15.1252,0.0117188,-0.0136719,0.0117188,0.9573364,-0.0266724,-0.0514526,0.2830811,0.0000000,0.0000000,0.0000000
15.1302,-0.0156250,0.0136719,0.0195312,0.9573364,-0.0266724,-0.0514526,0.2830811,0.0000000,0.0000000,0.0000000
15.1358,-0.0078125,-0.0097656,-0.0273438,0.9573364,-0.0266724,-0.0514526,0.2830811,0.0000000,0.0000000,0.0000000
15.1412,-0.0078125,0.0097656,0.0312500,0.9573364,-0.0266724,-0.0514526,0.2830811,0.0000000,0.0000000,0.0000000
15.1452,0.0273438,-0.0097656,0.0000000,0.9573364,-0.0266724,-0.0514526,0.2830811,0.0000000,0.0000000,0.0000000
15.1500,0.0000000,0.0058594,-0.0351562,0.9573364,-0.0266724,-0.0514526,0.2830811,0.0000000,0.0000000,0.0000000
15.1557,-0.0312500,0.0253906,0.0117188,0.9573364,-0.0266724,-0.0514526,0.2830811,0.0000000,0.0000000,0.0000000
15.1600,0.0078125,0.0136719,0.0117188,0.9573364,-0.0266724,-0.0514526,0.2830811,0.0000000,0.0000000,0.0000000
15.1648,0.0390625,-0.0058594,-0.0078125,0.9573364,-0.0266724,-0.0514526,0.2830811,0.0000000,0.0000000,0.0000000
15.1700,-0.0195312,0.0058594,0.0000000,0.9573364,-0.0266724,-0.0514526,0.2830811,0.0000000,0.0000000,0.0000000
15.1755,-0.0156250,0.0136719,0.0000000,0.9573364,-0.0266724,-0.0514526,0.2830811,0.0000000,0.0000000,0.0000000
15.1800,0.0039062,-0.0058594,0.0312500,0.9573364,-0.0266724,-0.0514526,0.2830811,0.0000000,0.0000000,0.0000000
15.1848,0.0039062,0.0136719,-0.0078125,0.9573364,-0.0266724,-0.0514526,0.2830811,0.0000000,0.0000000,0.0000000
15.1902,0.0039062,0.0136719,-0.0273438,0.9573364,-0.0266724,-0.0514526,0.2830811,0.0000000,0.0000000,0.0000000
15.1949,-0.0117188,-0.0175781,0.0195312,0.9573364,-0.0266724,-0.0514526,0.2830811,0.0000000,0.0000000,0.0000000
15.2008,0.0039062,0.0058594,0.0312500,0.9573364,-0.0266724,-0.0514526,0.2830811,0.0000000,0.0000000,0.0000000
15.2050,0.0000000,-0.0175781,-0.0078125,0.9573364,-0.0266724,-0.0514526,0.2830811,0.0000000,0.0000000,0.0000000
15.2100,0.0117188,0.0019531,0.0312500,0.9573364,-0.0266724,-0.0514526,0.2830811,0.0000000,0.0000000,0.0000000
